subject,condition,trial,rt,response,observed
0,Deadline,0,0.801798819,1,1
0,Deadline,1,0.534900407,0,1
0,Deadline,2,0.668553969,0,1
0,Deadline,3,0.851783409,1,1
0,Deadline,4,0.684997559,0,1
0,Deadline,5,0.751748122,1,1
0,Deadline,6,0.601761449,1,1
0,Deadline,7,0.735113155,1,1
0,Deadline,8,0.471869915,0,1
0,Deadline,9,0.51848489,1,1
0,Deadline,10,0.418349688,1,1
0,Deadline,11,0.43520984,0,1
0,Deadline,12,0.768439234,0,1
0,Deadline,13,0.485136775,1,1
0,Deadline,14,0.635094772,0,1
0,Deadline,15,0.551575521,0,1
0,Deadline,16,0.468452606,1,1
0,Deadline,17,0.685177164,0,1
0,Deadline,18,0.484957775,0,1
0,Deadline,19,0.685195275,1,1
0,Deadline,20,0.751661489,0,1
0,Deadline,21,0.584833984,1,1
0,Deadline,22,0.751795211,0,1
0,Deadline,23,0.635102319,1,1
0,Deadline,24,0.81841507,1,1
0,Deadline,25,0.651833879,0,1
0,Deadline,26,0.718284095,1,1
0,Deadline,27,0.551842059,0,1
0,Deadline,28,0.635156049,1,1
0,Deadline,29,0.551500661,1,1
0,Deadline,30,0.668481524,0,1
0,Deadline,31,0.635154841,0,1
0,Deadline,32,0.785149061,0,1
0,Deadline,33,0.568462235,1,1
0,Deadline,34,0.685140639,1,1
0,Deadline,35,0.685186219,1,1
0,Deadline,36,0.651507271,0,1
0,Deadline,37,0.701535329,1,1
0,Deadline,38,0.635138843,1,1
0,Deadline,39,0.61826692,1,1
0,Deadline,40,0.535036242,0,1
0,Deadline,41,0.65176083,0,1
0,Deadline,42,0.8018121,1,1
0,Deadline,43,0.855208868,1,1
0,Deadline,44,0.551826061,1,1
0,Deadline,45,0.601832083,0,1
0,Deadline,46,0.78491301,1,1
0,Deadline,47,0.635076661,1,1
0,Deadline,48,0.718469435,1,1
0,Deadline,49,0.901789129,1,1
0,Deadline,50,0.768480588,1,1
0,Deadline,51,0.735166584,1,1
0,Deadline,52,0.535256899,1,1
0,Deadline,53,0.751669639,1,1
0,Deadline,54,0.618484558,1,1
0,Deadline,55,0.651794034,0,1
0,Deadline,56,0.668492089,1,1
0,Deadline,57,1.051735655,1,1
0,Deadline,58,0.768431687,0,1
0,Deadline,59,0.48491461,1,1
0,Deadline,60,0.601780768,1,1
0,Deadline,61,0.735123418,1,1
0,Deadline,62,0.7851717,1,1
0,Deadline,63,1.035086199,1,1
0,Deadline,64,0.418363272,1,1
0,Deadline,65,0.485109608,0,1
0,Deadline,66,0.501596062,0,1
0,Deadline,67,0.451527858,0,1
0,Deadline,68,0.6184426,1,1
0,Deadline,69,0.6183288,1,1
0,Deadline,70,0.635189857,1,1
0,Deadline,71,0.65182422,0,1
0,Deadline,72,0.668462809,0,1
0,Deadline,73,0.935014086,1,1
0,Deadline,74,0.551844776,1,1
0,Deadline,75,0.601799181,1,1
0,Deadline,76,0.718489659,0,1
0,Deadline,77,0.501754235,1,1
0,Deadline,78,0.885179216,1,1
0,Deadline,79,0.50180223,0,1
0,Deadline,80,0.434863007,1,1
0,Deadline,81,0.468325525,1,1
0,Deadline,82,0.768037464,0,1
0,Deadline,83,0.485159113,0,1
0,Deadline,84,0.668473977,1,1
0,Deadline,85,0.718463397,1,1
0,Deadline,86,0.601776844,1,1
0,Deadline,87,0.785186491,0,1
0,Deadline,88,0.601833592,1,1
0,Deadline,89,0.551879791,1,1
0,Deadline,90,0.601739413,1,1
0,Deadline,91,0.651830257,1,1
0,Deadline,92,0.585125878,1,1
0,Deadline,93,0.851814198,0,1
0,Deadline,94,0.785179548,1,1
0,Deadline,95,0.768504435,1,1
0,Deadline,96,1.101765222,1,1
0,Deadline,97,0.734771756,0,1
0,Deadline,98,0.601791634,1,1
0,Deadline,99,0.685133093,1,1
0,Deadline,100,0.785091406,1,1
0,Deadline,101,0.801844097,1,1
0,Deadline,102,0.834712261,0,1
0,Deadline,103,0.568167322,1,1
0,Deadline,104,0.685169315,1,1
0,Deadline,105,0.568342399,0,1
0,Deadline,106,0.551747579,0,1
0,Deadline,107,0.784802832,0,1
0,Deadline,108,0.868408716,0,1
0,Deadline,109,0.601753601,0,1
0,Deadline,110,0.535150042,1,1
0,Deadline,111,0.551549561,0,1
0,Deadline,112,0.785097745,1,1
0,Deadline,113,0.934914172,1,1
0,Deadline,114,0.651766263,1,1
0,Deadline,115,0.635112883,0,1
0,Deadline,116,0.534628133,1,1
0,Deadline,117,0.718480905,0,1
0,Deadline,118,0.568502382,1,1
0,Deadline,119,0.551817005,0,1
0,Deadline,120,0.818418994,0,1
0,Deadline,121,0.635074246,0,1
0,Deadline,122,0.535202565,1,1
0,Deadline,123,0.518361431,1,1
0,Deadline,124,0.485113834,0,1
0,Deadline,125,0.468150147,1,1
0,Deadline,126,0.685087513,1,1
0,Deadline,127,0.651792827,0,1
0,Deadline,128,0.63505704,0,1
0,Deadline,129,0.685073627,0,1
0,Deadline,130,0.685065779,1,1
0,Deadline,131,0.901773734,1,1
0,Deadline,132,0.535088463,1,1
0,Deadline,133,0.751567008,0,1
0,Deadline,134,0.968287944,0,1
0,Deadline,135,0.75172337,1,1
0,Deadline,136,0.785087482,1,1
0,Deadline,137,0.835066035,0,1
0,Deadline,138,0.868415961,1,1
0,Deadline,139,0.685148487,0,1
0,Deadline,140,0.835115842,0,1
0,Deadline,141,1.035216601,1,1
0,Deadline,142,1.068398997,1,1
0,Deadline,143,0.468351183,1,1
0,Deadline,144,0.951821714,1,1
0,Deadline,145,0.535092086,1,1
0,Deadline,146,0.734735534,1,1
0,Deadline,147,0.735108024,0,1
0,Deadline,148,0.73505218,0,1
0,Deadline,149,0.918349537,0,1
0,Deadline,150,0.801728788,1,1
0,Deadline,151,1.218254362,1,1
0,Deadline,152,0.38513922,0,1
0,Deadline,153,0.601586674,1,1
0,Deadline,154,0.801790065,0,1
0,Deadline,155,0.501795287,0,1
0,Deadline,156,0.535248447,1,1
0,Deadline,157,0.535202565,0,1
0,Deadline,158,0.735082366,1,1
0,Deadline,159,0.751778911,0,1
0,Deadline,160,0.518477343,0,1
0,Deadline,161,0.45184873,1,1
0,Deadline,162,0.451737346,1,1
0,Deadline,163,0.50137118,1,1
0,Deadline,164,0.618301633,1,1
0,Deadline,165,0.834926276,0,1
0,Deadline,166,0.568502986,1,1
0,Deadline,167,0.65176415,0,1
0,Deadline,168,0.518482777,0,1
0,Deadline,169,0.535131025,1,1
0,Deadline,170,0.568511438,1,1
0,Deadline,171,0.518458628,1,1
0,Deadline,172,0.568522908,0,1
0,Deadline,173,0.651769886,1,1
0,Deadline,174,0.968495017,1,1
0,Deadline,175,0.91833686,1,1
0,Deadline,176,0.718166975,1,1
0,Deadline,177,0.901844067,1,1
0,Deadline,178,0.751857394,1,1
0,Deadline,179,0.78513427,0,1
0,Deadline,180,0.635193479,1,1
0,Deadline,181,0.768501114,1,1
0,Deadline,182,0.501703825,1,1
0,Deadline,183,0.585149423,1,1
0,Deadline,184,0.635182914,1,1
0,Deadline,185,0.818469404,1,1
0,Deadline,186,0.86842079,1,1
0,Deadline,187,0.518524131,0,1
0,Deadline,188,0.518499982,1,1
0,Deadline,189,0.585180514,0,1
0,Deadline,190,0.651830861,0,1
0,Deadline,191,0.70183477,0,1
0,Deadline,192,1.135057493,0,1
0,Deadline,193,0.651841426,1,1
0,Deadline,194,1.085206625,1,1
0,Deadline,195,1.268177676,1,1
0,Deadline,196,0.60159241,0,1
0,Deadline,197,1.034920179,1,1
0,Deadline,198,0.651786488,1,1
0,Deadline,199,0.901825352,0,1
0,No Deadline,0,0.851745979,1,1
0,No Deadline,1,1.535186868,1,1
0,No Deadline,2,1.034939799,0,1
0,No Deadline,3,1.118474143,1,1
0,No Deadline,4,1.001657188,1,1
0,No Deadline,5,0.851641839,1,1
0,No Deadline,6,0.751856488,1,1
0,No Deadline,7,0.918484467,1,1
0,No Deadline,8,1.135008592,1,1
0,No Deadline,9,0.835156592,0,1
0,No Deadline,10,0.70182511,0,1
0,No Deadline,11,0.601848987,1,1
0,No Deadline,12,0.718293453,1,1
0,No Deadline,13,1.15185848,1,1
0,No Deadline,14,0.501530559,0,1
0,No Deadline,15,0.818398166,0,1
0,No Deadline,16,0.468512977,1,1
0,No Deadline,17,0.43521316,0,1
0,No Deadline,18,0.535185963,1,1
0,No Deadline,19,0.435173315,1,1
0,No Deadline,20,0.468444758,1,1
0,No Deadline,21,0.685046762,0,1
0,No Deadline,22,0.618023322,1,1
0,No Deadline,23,0.651480406,1,1
0,No Deadline,24,0.501758762,1,1
0,No Deadline,25,0.568250031,0,1
0,No Deadline,26,0.535134949,1,1
0,No Deadline,27,0.651723098,0,1
0,No Deadline,28,0.751830227,1,1
0,No Deadline,29,0.535205885,0,1
0,No Deadline,30,0.65184535,1,1
0,No Deadline,31,0.534958967,1,1
0,No Deadline,32,0.551763879,1,1
0,No Deadline,33,0.451646185,1,1
0,No Deadline,34,0.851709454,1,1
0,No Deadline,35,0.584928767,1,1
0,No Deadline,36,0.568404581,0,1
0,No Deadline,37,0.80182991,1,1
0,No Deadline,38,0.651829351,1,1
0,No Deadline,39,0.685170221,1,1
0,No Deadline,40,0.485427764,1,1
0,No Deadline,41,1.168424926,1,1
0,No Deadline,42,0.785025602,1,1
0,No Deadline,43,0.485170281,1,1
0,No Deadline,44,0.80181361,1,1
0,No Deadline,45,0.618200209,1,1
0,No Deadline,46,1.051772482,0,1
0,No Deadline,47,0.951462506,1,1
0,No Deadline,48,0.668453451,1,1
0,No Deadline,49,1.018521867,1,1
0,No Deadline,50,0.751557047,1,1
0,No Deadline,51,1.568418466,1,1
0,No Deadline,52,0.551800101,1,1
0,No Deadline,53,0.568526229,1,1
0,No Deadline,54,1.968479622,1,1
0,No Deadline,55,0.751778609,1,1
0,No Deadline,56,0.634969804,1,1
0,No Deadline,57,0.485175715,0,1
0,No Deadline,58,0.618513536,1,1
0,No Deadline,59,0.651785884,1,1
0,No Deadline,60,0.568287763,0,1
0,No Deadline,61,1.151833125,0,1
0,No Deadline,62,0.601619577,1,1
0,No Deadline,63,0.485105986,1,1
0,No Deadline,64,0.485181752,0,1
0,No Deadline,65,0.568377414,0,1
0,No Deadline,66,0.551710148,0,1
0,No Deadline,67,0.568718813,1,1
0,No Deadline,68,0.751608061,1,1
0,No Deadline,69,0.468485207,1,1
0,No Deadline,70,0.41827996,1,1
0,No Deadline,71,0.485128927,1,1
0,No Deadline,72,0.501817926,1,1
0,No Deadline,73,0.585169647,0,1
0,No Deadline,74,0.468245231,1,1
0,No Deadline,75,0.435223725,0,1
0,No Deadline,76,0.785162041,1,1
0,No Deadline,77,0.58496016,1,1
0,No Deadline,78,0.51846708,1,1
0,No Deadline,79,0.535184453,0,1
0,No Deadline,80,1.118427356,0,1
0,No Deadline,81,0.501841471,1,1
0,No Deadline,82,0.518483984,1,1
0,No Deadline,83,0.518519603,1,1
0,No Deadline,84,0.918362215,1,1
0,No Deadline,85,1.068355529,0,1
0,No Deadline,86,1.234823826,1,1
0,No Deadline,87,0.801860397,1,1
0,No Deadline,88,1.018482022,0,1
0,No Deadline,89,0.618479426,1,1
0,No Deadline,90,0.435098455,1,1
0,No Deadline,91,0.651859839,1,1
0,No Deadline,92,0.618483048,1,1
0,No Deadline,93,0.818433182,1,1
0,No Deadline,94,0.568389488,1,1
0,No Deadline,95,0.5184704,1,1
0,No Deadline,96,0.568429031,1,1
0,No Deadline,97,0.568274179,1,1
0,No Deadline,98,0.535082124,1,1
0,No Deadline,99,0.601853515,1,1
0,No Deadline,100,0.968446418,1,1
0,No Deadline,101,0.584844247,1,1
0,No Deadline,102,0.968477811,1,1
0,No Deadline,103,0.701666032,1,1
0,No Deadline,104,0.90182505,0,1
0,No Deadline,105,1.168355197,1,1
0,No Deadline,106,1.135137485,1,1
0,No Deadline,107,1.335094863,0,1
0,No Deadline,108,0.768489644,1,1
0,No Deadline,109,0.985133304,0,1
0,No Deadline,110,0.768460062,1,1
0,No Deadline,111,0.8852254,1,1
0,No Deadline,112,0.918357989,1,1
0,No Deadline,113,1.551777764,1,1
0,No Deadline,114,1.185118755,0,1
0,No Deadline,115,1.201822544,1,1
0,No Deadline,116,1.151489311,0,1
0,No Deadline,117,1.135183065,1,1
0,No Deadline,118,1.06808235,1,1
0,No Deadline,119,0.935176183,1,1
0,No Deadline,120,1.151840973,1,1
0,No Deadline,121,0.81836134,1,1
0,No Deadline,122,1.368472861,1,1
0,No Deadline,123,0.468434193,1,1
0,No Deadline,124,0.518182732,1,1
0,No Deadline,125,0.401601828,0,1
0,No Deadline,126,0.418529293,1,1
0,No Deadline,127,0.401831842,1,1
0,No Deadline,128,0.468292924,1,1
0,No Deadline,129,0.435206217,0,1
0,No Deadline,130,0.468368388,1,1
0,No Deadline,131,0.435186898,0,1
0,No Deadline,132,0.534988851,1,1
0,No Deadline,133,0.618488783,1,1
0,No Deadline,134,0.685094455,0,1
0,No Deadline,135,0.584996684,1,1
0,No Deadline,136,0.418576684,1,1
0,No Deadline,137,0.668407267,1,1
0,No Deadline,138,0.818455821,1,1
0,No Deadline,139,0.918525519,1,1
0,No Deadline,140,0.618519271,1,1
0,No Deadline,141,0.685008728,1,1
0,No Deadline,142,0.601852911,0,1
0,No Deadline,143,0.535113517,1,1
0,No Deadline,144,1.051836475,1,1
0,No Deadline,145,1.101807482,1,1
0,No Deadline,146,0.785076616,0,1
0,No Deadline,147,1.001569348,0,1
0,No Deadline,148,0.671794994,1,1
0,No Deadline,149,0.585192287,0,1
0,No Deadline,150,0.90170793,1,1
0,No Deadline,151,1.018078139,0,1
0,No Deadline,152,0.618341176,0,1
0,No Deadline,153,0.751561273,1,1
0,No Deadline,154,0.651557681,0,1
0,No Deadline,155,0.718468227,1,1
0,No Deadline,156,0.735167489,1,1
0,No Deadline,157,0.618428412,1,1
0,No Deadline,158,0.935143582,0,1
0,No Deadline,159,0.668513822,1,1
0,No Deadline,160,0.751800947,0,1
0,No Deadline,161,0.918441302,0,1
0,No Deadline,162,0.618155837,1,1
0,No Deadline,163,0.551795876,0,1
0,No Deadline,164,0.501847508,1,1
0,No Deadline,165,0.601677231,1,1
0,No Deadline,166,0.535010585,1,1
0,No Deadline,167,0.435197765,1,1
0,No Deadline,168,0.585134632,0,1
0,No Deadline,169,0.535179624,0,1
0,No Deadline,170,0.584802591,1,1
0,No Deadline,171,0.635166614,1,1
0,No Deadline,172,0.468480981,1,1
0,No Deadline,173,0.551563447,1,1
0,No Deadline,174,0.518247631,1,1
0,No Deadline,175,0.651822409,0,1
0,No Deadline,176,0.618311594,1,1
0,No Deadline,177,1.051573861,0,1
0,No Deadline,178,0.735148472,1,1
0,No Deadline,179,0.551911486,0,1
0,No Deadline,180,1.16842402,0,1
0,No Deadline,181,0.618430223,1,1
0,No Deadline,182,0.751539238,0,1
0,No Deadline,183,0.88513424,1,1
0,No Deadline,184,0.73488133,1,1
0,No Deadline,185,0.635121335,1,1
0,No Deadline,186,0.668576307,1,1
0,No Deadline,187,0.551809157,0,1
0,No Deadline,188,0.851822348,1,1
0,No Deadline,189,0.635171443,0,1
0,No Deadline,190,1.084846209,1,1
0,No Deadline,191,0.484989772,0,1
0,No Deadline,192,0.568339984,1,1
0,No Deadline,193,0.435249383,1,1
0,No Deadline,194,0.585147008,0,1
0,No Deadline,195,0.43492851,1,1
0,No Deadline,196,0.468243118,1,1
0,No Deadline,197,0.83838826,1,1
0,No Deadline,198,0.601870117,1,1
0,No Deadline,199,0.684829124,0,1
10,Deadline,1,0.668537859,1,1
10,Deadline,2,0.685239435,1,1
10,Deadline,3,0.735210744,1,1
10,Deadline,4,0.684959918,1,1
10,Deadline,5,0.451895507,0,1
10,Deadline,6,0.73502118,0,1
10,Deadline,7,0.985191953,0,1
10,Deadline,8,0.601870709,1,1
10,Deadline,9,1.26857058,1,1
10,Deadline,10,0.501883417,1,1
10,Deadline,11,0.501868928,0,1
10,Deadline,12,0.518489608,1,1
10,Deadline,13,0.601905724,1,1
10,Deadline,14,0.618528818,1,1
10,Deadline,15,0.901702184,1,1
10,Deadline,16,0.501596052,1,1
10,Deadline,17,0.401892201,1,1
10,Deadline,18,0.568324478,0,1
10,Deadline,19,0.501829989,1,1
10,Deadline,20,0.601893952,1,1
10,Deadline,21,0.501823047,1,1
10,Deadline,22,0.701864038,0,1
10,Deadline,23,0.851835317,0,1
10,Deadline,24,0.951876641,1,1
10,Deadline,25,1.168516276,0,1
10,Deadline,26,0.551904532,1,1
10,Deadline,27,0.485206291,1,1
10,Deadline,28,0.635154629,0,1
10,Deadline,29,0.501601486,1,1
10,Deadline,30,0.568563245,1,1
10,Deadline,31,0.568533663,1,1
10,Deadline,32,0.584796042,1,1
10,Deadline,33,0.818315951,1,1
10,Deadline,34,0.918487072,1,1
10,Deadline,35,0.685018176,0,1
10,Deadline,36,0.585107857,1,1
10,Deadline,37,0.451843588,1,1
10,Deadline,38,0.535061085,1,1
10,Deadline,39,0.501787126,1,1
10,Deadline,40,0.501970653,1,1
10,Deadline,41,0.518476628,0,1
10,Deadline,42,0.668328674,1,1
10,Deadline,43,0.701718545,0,1
10,Deadline,44,0.601645828,1,1
10,Deadline,45,0.485119056,0,1
10,Deadline,46,0.451841173,1,1
10,Deadline,47,0.501825763,1,1
10,Deadline,48,0.501813085,0,1
10,Deadline,49,0.451910297,1,1
10,Deadline,50,0.451908788,0,1
10,Deadline,51,0.635204737,0,1
10,Deadline,52,0.6183142,0,1
10,Deadline,53,0.585190867,0,1
10,Deadline,54,0.585174265,0,1
10,Deadline,55,0.73517754,1,1
10,Deadline,56,0.58518332,1,1
10,Deadline,57,0.618268319,0,1
10,Deadline,58,0.718495886,1,1
10,Deadline,59,0.568512533,0,1
10,Deadline,60,0.568519476,1,1
10,Deadline,61,0.518107461,1,1
10,Deadline,62,0.618303334,0,1
10,Deadline,63,0.86820757,1,1
10,Deadline,64,0.651058405,1,1
10,Deadline,65,0.534859748,0,1
10,Deadline,66,0.601611417,0,1
10,Deadline,67,0.51850953,1,1
10,Deadline,68,0.584990436,1,1
10,Deadline,69,0.901896578,0,1
10,Deadline,70,0.568514043,1,1
10,Deadline,71,0.518606727,1,1
10,Deadline,72,0.46822218,1,1
10,Deadline,73,0.568375492,1,1
10,Deadline,74,0.451870453,1,1
10,Deadline,75,0.451704735,0,1
10,Deadline,76,0.551577926,1,1
10,Deadline,77,0.785210729,1,1
10,Deadline,78,0.951694019,1,1
10,Deadline,79,0.701720356,0,1
10,Deadline,80,0.718517922,1,1
10,Deadline,81,0.951825929,1,1
10,Deadline,82,0.918377197,0,1
10,Deadline,83,1.134997212,1,1
10,Deadline,84,1.001720869,0,1
10,Deadline,85,0.968496113,1,1
10,Deadline,86,0.868215117,0,1
10,Deadline,87,0.81804881,1,1
10,Deadline,88,1.168483676,1,1
10,Deadline,89,0.401941102,0,1
10,Deadline,90,0.70178133,0,1
10,Deadline,91,0.435025194,0,1
10,Deadline,92,0.384996835,0,1
10,Deadline,93,0.451641044,1,1
10,Deadline,94,0.435007687,0,1
10,Deadline,95,0.468359222,1,1
10,Deadline,96,0.401587933,1,1
10,Deadline,97,0.685106921,1,1
10,Deadline,98,0.418305205,0,1
10,Deadline,99,0.485018237,1,1
10,Deadline,100,0.451725563,1,1
10,Deadline,101,0.651847451,1,1
10,Deadline,102,0.468481171,0,1
10,Deadline,103,0.701862529,0,1
10,Deadline,104,1.101754948,1,1
10,Deadline,105,0.885193493,1,1
10,Deadline,106,0.668484733,0,1
10,Deadline,107,0.601912365,0,1
10,Deadline,108,0.551823635,1,1
10,Deadline,109,0.518296421,1,1
10,Deadline,110,0.484843463,0,1
10,Deadline,111,0.501665177,0,1
10,Deadline,112,0.768395354,0,1
10,Deadline,113,0.535196919,0,1
10,Deadline,114,0.585220147,0,1
10,Deadline,115,0.585132005,0,1
10,Deadline,116,0.468495962,0,1
10,Deadline,117,0.501850515,1,1
10,Deadline,118,0.46849566,1,1
10,Deadline,119,0.46851679,1,1
10,Deadline,120,0.518403277,0,1
10,Deadline,121,0.55199871,0,1
10,Deadline,122,0.435165858,0,1
10,Deadline,123,0.551892458,0,1
10,Deadline,124,0.76849738,0,1
10,Deadline,125,0.485181539,1,1
10,Deadline,126,0.485186671,1,1
10,Deadline,127,0.568296708,1,1
10,Deadline,128,0.801872762,0,1
10,Deadline,129,0.785262648,0,1
10,Deadline,130,0.701831438,0,1
10,Deadline,131,0.501724642,1,1
10,Deadline,132,0.50166397,0,1
10,Deadline,133,0.818571018,1,1
10,Deadline,134,0.568586186,1,1
10,Deadline,135,0.618249,1,1
10,Deadline,136,0.685007309,1,1
10,Deadline,137,0.818436693,1,1
10,Deadline,138,0.651615326,1,1
10,Deadline,139,0.65184564,0,1
10,Deadline,140,0.701835966,0,1
10,Deadline,141,0.751843195,0,1
10,Deadline,142,0.618347404,1,1
10,Deadline,143,0.785176619,1,1
10,Deadline,144,0.701832042,1,1
10,Deadline,145,0.551704705,1,1
10,Deadline,146,0.7684029,1,1
10,Deadline,147,0.601873124,1,1
10,Deadline,148,0.768558355,1,1
10,Deadline,149,0.551708629,1,1
10,Deadline,150,0.721905024,0,1
10,Deadline,151,0.635136518,0,1
10,Deadline,152,0.701745712,0,1
10,Deadline,153,0.568532456,1,1
10,Deadline,154,0.935153331,1,1
10,Deadline,155,0.735226742,1,1
10,Deadline,156,0.601829355,1,1
10,Deadline,157,0.801930416,0,1
10,Deadline,158,0.735146751,0,1
10,Deadline,159,1.068316177,1,1
10,Deadline,160,0.735086984,0,1
10,Deadline,161,0.685228568,1,1
10,Deadline,162,0.701694095,1,1
10,Deadline,163,0.95187,1,1
10,Deadline,164,0.718537844,1,1
10,Deadline,165,0.685293467,1,1
10,Deadline,166,0.701735147,1,1
10,Deadline,167,0.701833249,1,1
10,Deadline,168,0.951840116,0,1
10,Deadline,169,0.885063394,0,1
10,Deadline,170,1.301817975,0,1
10,Deadline,171,1.068517816,0,1
10,Deadline,172,0.785176619,0,1
10,Deadline,173,0.801665086,1,1
10,Deadline,174,0.551916003,0,1
10,Deadline,175,0.568397225,1,1
10,Deadline,176,0.451651911,1,1
10,Deadline,177,0.635045056,0,1
10,Deadline,178,0.584932782,1,1
10,Deadline,179,0.568581054,1,1
10,Deadline,180,0.501676346,1,1
10,Deadline,181,0.735160334,1,1
10,Deadline,182,0.618525196,1,1
10,Deadline,183,0.718363674,0,1
10,Deadline,184,0.568537587,0,1
10,Deadline,185,0.668339239,0,1
10,Deadline,186,0.535246423,0,1
10,Deadline,187,0.651857413,0,1
10,Deadline,188,0.718509168,0,1
10,Deadline,189,0.66838663,1,1
10,Deadline,190,0.618508896,1,1
10,Deadline,191,0.58516702,0,1
10,Deadline,192,0.785286494,1,1
10,Deadline,193,0.71844608,1,1
10,Deadline,194,0.80183986,1,1
10,Deadline,195,0.801654823,0,1
10,Deadline,196,0.818350362,1,1
10,Deadline,197,0.918561026,0,1
10,Deadline,198,1.21848668,1,1
10,Deadline,199,1.251787805,1,1
10,No Deadline,0,1.518400863,1,1
10,No Deadline,1,0.885199228,1,1
10,No Deadline,2,0.484933717,1,1
10,No Deadline,3,0.451796197,1,1
10,No Deadline,4,0.535170356,1,1
10,No Deadline,5,0.468493547,1,1
10,No Deadline,6,0.685216796,0,1
10,No Deadline,7,0.418484808,0,1
10,No Deadline,8,0.501612353,1,1
10,No Deadline,9,0.735100265,1,1
10,No Deadline,10,0.701603538,0,1
10,No Deadline,11,0.751772863,0,1
10,No Deadline,12,0.735114754,1,1
10,No Deadline,13,0.568389075,1,1
10,No Deadline,14,0.9185079,1,1
10,No Deadline,15,0.488499517,1,1
10,No Deadline,16,0.568551473,0,1
10,No Deadline,17,0.468446759,1,1
10,No Deadline,18,0.451683303,1,1
10,No Deadline,19,0.518513454,1,1
10,No Deadline,20,0.768478062,1,1
10,No Deadline,21,0.518538206,1,1
10,No Deadline,22,0.934862344,1,1
10,No Deadline,23,0.618562324,1,1
10,No Deadline,24,0.61848505,1,1
10,No Deadline,25,0.818494649,0,1
10,No Deadline,26,0.868338575,0,1
10,No Deadline,27,0.818169854,0,1
10,No Deadline,28,1.134913599,1,1
10,No Deadline,29,1.035181072,0,1
10,No Deadline,30,1.185110393,1,1
10,No Deadline,31,0.78519473,1,1
10,No Deadline,32,0.918493411,1,1
10,No Deadline,33,0.818280936,1,1
10,No Deadline,34,0.785192316,1,1
10,No Deadline,35,0.784947814,1,1
10,No Deadline,36,0.718528788,0,1
10,No Deadline,37,1.051766736,0,1
10,No Deadline,38,1.118503614,0,1
10,No Deadline,39,0.71821486,1,1
10,No Deadline,40,0.501804634,0,1
10,No Deadline,41,0.568530947,0,1
10,No Deadline,42,0.485202669,0,1
10,No Deadline,43,0.768578277,0,1
10,No Deadline,44,1.118007064,1,1
10,No Deadline,45,0.768562581,1,1
10,No Deadline,46,1.085155097,0,1
10,No Deadline,47,0.551848689,1,1
10,No Deadline,48,1.234933491,1,1
10,No Deadline,49,1.301790809,1,1
10,No Deadline,50,1.234925945,0,1
10,No Deadline,51,0.835167549,1,1
10,No Deadline,52,0.81847865,1,1
10,No Deadline,53,0.768552318,0,1
10,No Deadline,54,0.685184799,1,1
10,No Deadline,55,0.785189599,0,1
10,No Deadline,56,0.651834472,1,1
10,No Deadline,57,0.734926699,0,1
10,No Deadline,58,0.885172061,1,1
10,No Deadline,59,0.91847862,0,1
10,No Deadline,60,1.601785888,0,1
10,No Deadline,61,1.518230617,1,1
10,No Deadline,62,0.768487721,0,1
10,No Deadline,63,0.635137424,0,1
10,No Deadline,64,1.218258176,0,1
10,No Deadline,65,0.701719752,0,1
10,No Deadline,66,0.935148803,1,1
10,No Deadline,67,0.685194761,1,1
10,No Deadline,68,0.501711964,0,1
10,No Deadline,69,0.68500248,1,1
10,No Deadline,70,0.684982859,1,1
10,No Deadline,71,0.851665071,0,1
10,No Deadline,72,0.918282415,0,1
10,No Deadline,73,0.801797298,0,1
10,No Deadline,74,0.935132201,0,1
10,No Deadline,75,0.735163956,0,1
10,No Deadline,76,0.601781662,0,1
10,No Deadline,77,0.551845972,1,1
10,No Deadline,78,0.618485955,1,1
10,No Deadline,79,0.6016413,1,1
10,No Deadline,80,0.568312706,0,1
10,No Deadline,81,0.601805509,1,1
10,No Deadline,82,0.818439107,1,1
10,No Deadline,83,1.101755854,1,1
10,No Deadline,84,0.701825703,0,1
10,No Deadline,85,1.268240955,0,1
10,No Deadline,86,1.068195436,1,1
10,No Deadline,87,1.618271337,0,1
10,No Deadline,88,1.101807169,1,1
10,No Deadline,89,1.235010464,0,1
10,No Deadline,90,1.30179111,1,1
10,No Deadline,91,1.201609425,1,1
10,No Deadline,92,0.751774071,0,1
10,No Deadline,93,0.585244597,1,1
10,No Deadline,94,1.318449823,0,1
10,No Deadline,95,1.101808075,1,1
10,No Deadline,96,0.785160017,1,1
10,No Deadline,97,1.734961111,1,1
10,No Deadline,98,0.718381785,0,1
10,No Deadline,99,0.76852666,1,1
10,No Deadline,100,0.718398387,0,1
10,No Deadline,101,0.618499539,1,1
10,No Deadline,102,0.751642764,0,1
10,No Deadline,103,0.551783187,1,1
10,No Deadline,104,0.701780727,0,1
10,No Deadline,105,0.901897484,1,1
10,No Deadline,106,0.968462909,1,1
10,No Deadline,107,1.284883972,0,1
10,No Deadline,108,0.818429146,1,1
10,No Deadline,109,1.051787866,1,1
10,No Deadline,110,1.184995084,1,1
10,No Deadline,111,0.868451167,0,1
10,No Deadline,112,1.018282385,1,1
10,No Deadline,113,1.184900604,0,1
10,No Deadline,114,1.101807773,1,1
10,No Deadline,115,0.951748051,0,1
10,No Deadline,116,0.718263459,1,1
10,No Deadline,117,0.735123206,1,1
10,No Deadline,118,0.635097277,1,1
10,No Deadline,119,1.018477081,0,1
10,No Deadline,120,1.101463659,0,1
10,No Deadline,121,0.934943543,1,1
10,No Deadline,122,0.818475934,1,1
10,No Deadline,123,0.48498141,1,1
10,No Deadline,124,0.934982784,0,1
10,No Deadline,125,0.968211766,0,1
10,No Deadline,126,1.585145891,1,1
10,No Deadline,127,1.118484899,1,1
10,No Deadline,128,1.018422143,1,1
10,No Deadline,129,0.868205759,1,1
10,No Deadline,130,0.9351645,0,1
10,No Deadline,131,0.801679877,1,1
10,No Deadline,132,0.718468719,1,1
10,No Deadline,133,0.818476839,1,1
10,No Deadline,134,1.001800257,0,1
10,No Deadline,135,0.868304466,1,1
10,No Deadline,136,1.001380076,1,1
10,No Deadline,137,0.618489276,1,1
10,No Deadline,138,0.768509153,0,1
10,No Deadline,139,0.601779549,1,1
10,No Deadline,140,1.301795638,0,1
10,No Deadline,141,0.768476854,1,1
10,No Deadline,142,0.668265587,1,1
10,No Deadline,143,0.834915501,1,1
10,No Deadline,144,0.71845574,1,1
10,No Deadline,145,1.018481005,1,1
10,No Deadline,146,1.335087406,1,1
10,No Deadline,147,0.985090531,1,1
10,No Deadline,148,0.668455151,0,1
10,No Deadline,149,0.901817794,1,1
10,No Deadline,150,1.068200869,1,1
10,No Deadline,151,0.901854922,0,1
10,No Deadline,152,0.818500082,0,1
10,No Deadline,153,0.951770992,0,1
10,No Deadline,154,0.668523068,1,1
10,No Deadline,155,0.834889541,0,1
10,No Deadline,156,0.901839226,0,1
10,No Deadline,157,0.81828486,1,1
10,No Deadline,158,2.001788786,1,1
10,No Deadline,159,0.868480145,1,1
10,No Deadline,160,0.885044075,1,1
10,No Deadline,161,0.668236307,1,1
10,No Deadline,162,0.818433372,0,1
10,No Deadline,163,0.668341352,0,1
10,No Deadline,164,0.668539368,1,1
10,No Deadline,165,0.635129575,1,1
10,No Deadline,166,0.934955315,0,1
10,No Deadline,167,1.035209446,1,1
10,No Deadline,168,1.15179508,1,1
10,No Deadline,169,1.085108913,1,1
10,No Deadline,170,0.685216494,0,1
10,No Deadline,171,0.685257848,1,1
10,No Deadline,172,0.818456011,0,1
10,No Deadline,173,0.634948161,1,1
10,No Deadline,174,0.834938441,1,1
10,No Deadline,175,0.835272594,1,1
10,No Deadline,176,1.268439877,1,1
10,No Deadline,177,0.918172238,1,1
10,No Deadline,178,1.135141499,0,1
10,No Deadline,179,0.868294806,0,1
10,No Deadline,180,0.718417102,1,1
10,No Deadline,181,1.118431169,1,1
10,No Deadline,182,0.784986451,1,1
10,No Deadline,183,0.501892775,1,1
10,No Deadline,184,1.068294142,1,1
10,No Deadline,185,0.985104114,1,1
10,No Deadline,186,1.151860884,1,1
10,No Deadline,187,0.98486082,1,1
10,No Deadline,188,1.068305914,0,1
10,No Deadline,189,1.151793269,1,1
10,No Deadline,190,0.818235658,0,1
10,No Deadline,191,0.768617216,1,1
10,No Deadline,192,0.985176257,1,1
10,No Deadline,193,0.985074834,0,1
10,No Deadline,194,0.935009951,1,1
10,No Deadline,195,0.88514912,1,1
10,No Deadline,196,0.984939604,1,1
10,No Deadline,197,1.135012909,1,1
10,No Deadline,198,2.035100175,1,1
10,No Deadline,199,0.701581201,1,1
11,Deadline,0,0.785160923,0,1
11,Deadline,1,0.984980052,1,1
11,Deadline,2,0.985114981,0,1
11,Deadline,3,0.868531762,1,1
11,Deadline,4,1.135174702,1,1
11,Deadline,6,0.618520367,0,1
11,Deadline,7,0.868523008,1,1
11,Deadline,8,0.535122361,1,1
11,Deadline,9,0.584991341,1,1
11,Deadline,10,0.701794612,1,1
11,Deadline,11,0.501329214,1,1
11,Deadline,12,0.584985002,1,1
11,Deadline,13,1.035183788,1,1
11,Deadline,14,0.634952085,1,1
11,Deadline,15,0.568354966,1,1
11,Deadline,17,0.568293689,1,1
11,Deadline,18,0.435239812,1,1
11,Deadline,19,0.485149241,1,1
11,Deadline,20,0.50176992,1,1
11,Deadline,21,0.468283457,0,1
11,Deadline,22,0.401875599,0,1
11,Deadline,23,0.235121848,0,1
11,Deadline,24,0.418131639,0,1
11,Deadline,25,0.285007732,0,1
11,Deadline,26,0.284944946,1,1
11,Deadline,27,0.535222878,0,1
11,Deadline,28,0.785098741,1,1
11,Deadline,29,1.018179453,1,1
11,Deadline,30,0.435067454,1,1
11,Deadline,31,0.518306382,1,1
11,Deadline,32,0.468506225,1,1
11,Deadline,33,0.61839238,0,1
11,Deadline,34,0.685202609,1,1
11,Deadline,35,0.551906343,1,1
11,Deadline,36,0.734911908,1,1
11,Deadline,37,0.385236809,1,1
11,Deadline,38,0.551834804,1,1
11,Deadline,39,0.401666113,1,1
11,Deadline,40,0.751699513,1,1
11,Deadline,41,0.501684496,1,1
11,Deadline,42,0.401658868,1,1
11,Deadline,43,0.418621246,1,1
11,Deadline,44,0.634997363,1,1
11,Deadline,45,0.418387007,0,1
11,Deadline,46,0.584787892,0,1
11,Deadline,47,0.434956975,0,1
11,Deadline,48,0.451861095,1,1
11,Deadline,49,0.618509198,1,1
11,Deadline,50,0.535062594,0,1
11,Deadline,51,0.718342243,1,1
11,Deadline,52,1.251834291,1,1
11,Deadline,53,0.351695408,0,1
11,Deadline,54,0.784888952,1,1
11,Deadline,55,0.501750602,0,1
11,Deadline,56,0.368506859,1,1
11,Deadline,57,0.451835438,1,1
11,Deadline,58,0.501692344,1,1
11,Deadline,59,0.435140804,1,1
11,Deadline,60,0.551574002,1,1
11,Deadline,61,0.768524245,1,1
11,Deadline,62,0.685182988,0,1
11,Deadline,63,0.751675968,1,1
11,Deadline,64,0.485061402,1,1
11,Deadline,65,0.401698411,1,1
11,Deadline,66,0.535306794,0,1
11,Deadline,67,1.018351208,1,1
11,Deadline,68,0.635230093,1,1
11,Deadline,69,0.401897031,1,1
11,Deadline,70,0.568527626,1,1
11,Deadline,71,1.084914218,1,1
11,Deadline,72,0.718514903,1,1
11,Deadline,73,0.501810369,0,1
11,Deadline,74,0.818531475,1,1
11,Deadline,75,0.701785254,1,1
11,Deadline,77,0.401707467,1,1
11,Deadline,78,0.468441326,1,1
11,Deadline,79,0.718466908,1,1
11,Deadline,80,0.601608096,1,1
11,Deadline,81,0.584955119,1,1
11,Deadline,82,0.918337956,0,1
11,Deadline,83,0.435207816,0,1
11,Deadline,84,0.785157904,0,1
11,Deadline,85,0.885018719,1,1
11,Deadline,86,0.70164127,1,1
11,Deadline,87,0.518471496,0,1
11,Deadline,88,0.451798913,1,1
11,Deadline,89,0.418582609,1,1
11,Deadline,90,0.318524381,1,1
11,Deadline,91,0.818498875,1,1
11,Deadline,92,0.618290958,1,1
11,Deadline,93,0.401665811,1,1
11,Deadline,94,0.66836218,0,1
11,Deadline,95,0.401565294,1,1
11,Deadline,96,0.435218984,0,1
11,Deadline,97,0.435025798,1,1
11,Deadline,98,0.668287622,0,1
11,Deadline,99,0.40180406,0,1
11,Deadline,100,0.468576858,1,1
11,Deadline,101,0.568550265,0,1
11,Deadline,102,0.635176665,1,1
11,Deadline,103,0.535049011,1,1
11,Deadline,104,0.418450095,1,1
11,Deadline,105,0.501880097,1,1
11,Deadline,106,0.418541255,1,1
11,Deadline,107,0.6518716,0,1
11,Deadline,108,0.535068329,1,1
11,Deadline,109,0.601615341,1,1
11,Deadline,110,0.601696841,1,1
11,Deadline,111,0.518299742,1,1
11,Deadline,112,0.501714681,0,1
11,Deadline,113,0.518470289,1,1
11,Deadline,114,0.568527022,1,1
11,Deadline,115,0.818098918,0,1
11,Deadline,117,0.635131688,0,1
11,Deadline,118,0.685080056,0,1
11,Deadline,119,0.484861876,1,1
11,Deadline,120,0.4017129,1,1
11,Deadline,121,0.501829989,1,1
11,Deadline,122,0.51851768,1,1
11,Deadline,123,0.518313929,1,1
11,Deadline,124,0.418655657,0,1
11,Deadline,125,0.518262312,1,1
11,Deadline,126,0.668318109,1,1
11,Deadline,127,0.451671229,1,1
11,Deadline,128,0.568339269,1,1
11,Deadline,129,0.501656423,1,1
11,Deadline,130,0.501723737,1,1
11,Deadline,131,0.485177314,1,1
11,Deadline,132,0.635080977,0,1
11,Deadline,133,0.701669343,1,1
11,Deadline,134,0.63517274,1,1
11,Deadline,135,0.535230425,1,1
11,Deadline,136,0.485020349,1,1
11,Deadline,137,0.418533708,0,1
11,Deadline,138,0.518310306,1,1
11,Deadline,139,0.485141997,1,1
11,Deadline,140,0.784983131,1,1
11,Deadline,141,0.488570755,1,1
11,Deadline,142,0.684903774,0,1
11,Deadline,143,0.668551442,1,1
11,Deadline,144,0.718496792,0,1
11,Deadline,145,0.468347751,1,1
11,Deadline,146,0.434942788,1,1
11,Deadline,147,0.451429444,1,1
11,Deadline,148,0.551408284,1,1
11,Deadline,149,0.501594845,1,1
11,Deadline,150,0.668399308,1,1
11,Deadline,151,0.451872264,0,1
11,Deadline,152,0.36833118,1,1
11,Deadline,153,0.485283868,1,1
11,Deadline,154,0.485101246,1,1
11,Deadline,155,0.585010056,1,1
11,Deadline,156,0.535245216,1,1
11,Deadline,157,0.535251856,1,1
11,Deadline,158,0.485154071,1,1
11,Deadline,159,0.468548786,1,1
11,Deadline,160,0.718340431,1,1
11,Deadline,161,0.451925994,0,1
11,Deadline,162,0.801802128,1,1
11,Deadline,165,1.051671652,1,1
11,Deadline,166,0.6183305,0,1
11,Deadline,167,0.45188947,1,1
11,Deadline,168,0.451880716,0,1
11,Deadline,169,0.634831947,1,1
11,Deadline,170,0.401591253,0,1
11,Deadline,171,0.451589125,0,1
11,Deadline,172,0.384876999,1,1
11,Deadline,173,0.451687529,1,1
11,Deadline,174,0.951554865,0,1
11,Deadline,175,0.418364972,1,1
11,Deadline,176,0.3849422,0,1
11,Deadline,177,0.51841837,1,1
11,Deadline,178,0.651820285,1,1
11,Deadline,179,0.501726755,1,1
11,Deadline,180,0.418275925,1,1
11,Deadline,181,0.518321475,0,1
11,Deadline,182,0.501832404,1,1
11,Deadline,183,0.485160712,1,1
11,Deadline,184,0.618237831,0,1
11,Deadline,185,0.551845671,1,1
11,Deadline,186,0.635148894,0,1
11,Deadline,187,0.701768049,0,1
11,Deadline,188,0.418854277,1,1
11,Deadline,189,0.601809735,0,1
11,Deadline,190,0.551794355,1,1
11,Deadline,191,0.835160002,1,1
11,Deadline,192,0.584997982,1,1
11,Deadline,193,0.551897589,1,1
11,Deadline,194,0.484994692,0,1
11,Deadline,195,0.701652741,0,1
11,Deadline,196,0.468365561,1,1
11,Deadline,197,0.468475436,1,1
11,Deadline,198,0.501631369,1,1
11,Deadline,199,0.518312118,0,1
11,No Deadline,0,0.385139914,1,1
11,No Deadline,1,0.468385785,0,1
11,No Deadline,2,0.468357713,0,1
11,No Deadline,3,0.81844605,0,1
11,No Deadline,4,2.001778825,1,1
11,No Deadline,5,0.751500289,0,1
11,No Deadline,6,0.651692299,0,1
11,No Deadline,7,0.501635595,0,1
11,No Deadline,8,0.835173887,1,1
11,No Deadline,9,0.451584295,0,1
11,No Deadline,10,0.718464192,1,1
11,No Deadline,11,6.168170654,1,1
11,No Deadline,12,1.56839964,1,1
11,No Deadline,13,0.718315679,1,1
11,No Deadline,14,0.868479239,1,1
11,No Deadline,15,1.434852232,1,1
11,No Deadline,16,1.735145543,1,1
11,No Deadline,17,1.135142102,0,1
11,No Deadline,18,0.701833551,1,1
11,No Deadline,19,1.268311589,1,1
11,No Deadline,20,0.618201911,1,1
11,No Deadline,21,0.684993122,1,1
11,No Deadline,22,0.651727012,1,1
11,No Deadline,23,0.685057719,1,1
11,No Deadline,24,0.601589985,1,1
11,No Deadline,25,0.801562758,1,1
11,No Deadline,26,0.46826293,1,1
11,No Deadline,27,0.785197749,1,1
11,No Deadline,28,0.935023534,0,1
11,No Deadline,29,1.151592234,0,1
11,No Deadline,30,0.851809961,1,1
11,No Deadline,31,0.551881893,1,1
11,No Deadline,32,0.951576296,0,1
11,No Deadline,33,0.618272846,1,1
11,No Deadline,34,1.384975403,1,1
11,No Deadline,35,3.234995673,1,1
11,No Deadline,36,0.818339496,1,1
11,No Deadline,37,0.868490408,1,1
11,No Deadline,38,1.235016803,1,1
11,No Deadline,39,0.718020768,1,1
11,No Deadline,40,0.734979826,1,1
11,No Deadline,41,1.618517348,0,1
11,No Deadline,42,0.551639202,1,1
11,No Deadline,43,0.468335677,0,1
11,No Deadline,44,0.551552872,1,1
11,No Deadline,45,0.468303983,0,1
11,No Deadline,46,0.568293387,1,1
11,No Deadline,47,0.401762706,1,1
11,No Deadline,48,0.951694019,1,1
11,No Deadline,49,0.401805267,1,1
11,No Deadline,50,0.651659698,0,1
11,No Deadline,51,0.551876762,0,1
11,No Deadline,52,0.468447967,1,1
11,No Deadline,53,0.535112702,1,1
11,No Deadline,54,0.534969925,0,1
11,No Deadline,55,0.601519351,0,1
11,No Deadline,56,0.68513439,1,1
11,No Deadline,57,0.6182653,1,1
11,No Deadline,58,0.55170561,1,1
11,No Deadline,59,0.451892186,1,1
11,No Deadline,60,0.418615209,1,1
11,No Deadline,61,0.535094289,1,1
11,No Deadline,62,0.418311846,0,1
11,No Deadline,63,0.655200143,1,1
11,No Deadline,64,2.368414793,1,1
11,No Deadline,65,0.351625076,1,1
11,No Deadline,66,0.651809116,1,1
11,No Deadline,67,0.451976403,1,1
11,No Deadline,68,1.068337911,0,1
11,No Deadline,69,0.985139129,1,1
11,No Deadline,70,0.435191818,1,1
11,No Deadline,71,0.968426988,1,1
11,No Deadline,72,0.91852752,0,1
11,No Deadline,73,0.734905268,0,1
11,No Deadline,74,0.588441531,0,1
11,No Deadline,75,0.785019655,1,1
11,No Deadline,76,0.751808784,1,1
11,No Deadline,77,0.668557178,1,1
11,No Deadline,78,0.735127432,1,1
11,No Deadline,79,0.468455815,1,1
11,No Deadline,80,0.468355298,1,1
11,No Deadline,81,0.651816662,1,1
11,No Deadline,82,0.601623189,0,1
11,No Deadline,83,0.435084056,1,1
11,No Deadline,84,0.73498375,0,1
11,No Deadline,85,0.318499931,0,1
11,No Deadline,86,0.434837743,1,1
11,No Deadline,87,0.401461154,0,1
11,No Deadline,88,0.435051757,1,1
11,No Deadline,89,0.818446956,0,1
11,No Deadline,90,1.251774825,0,1
11,No Deadline,91,1.301603357,1,1
11,No Deadline,92,0.784940268,0,1
11,No Deadline,93,0.751753243,1,1
11,No Deadline,94,0.984910022,1,1
11,No Deadline,95,0.501788937,1,1
11,No Deadline,96,0.535062896,0,1
11,No Deadline,97,0.435025496,1,1
11,No Deadline,98,0.701798536,1,1
11,No Deadline,99,0.701790688,1,1
11,No Deadline,100,0.501820632,0,1
11,No Deadline,101,0.651652756,0,1
11,No Deadline,102,0.484910475,1,1
11,No Deadline,103,0.534961473,1,1
11,No Deadline,104,0.45179016,0,1
11,No Deadline,105,0.401662792,0,1
11,No Deadline,106,0.451893997,1,1
11,No Deadline,107,0.60182362,1,1
11,No Deadline,108,0.518201035,0,1
11,No Deadline,109,0.768384789,1,1
11,No Deadline,110,1.134976988,1,1
11,No Deadline,111,0.585120535,1,1
11,No Deadline,112,0.785244838,1,1
11,No Deadline,113,0.618464825,1,1
11,No Deadline,114,0.918377499,1,1
11,No Deadline,115,0.568293991,1,1
11,No Deadline,116,0.651928952,0,1
11,No Deadline,117,0.50150278,1,1
11,No Deadline,118,0.451839966,1,1
11,No Deadline,119,0.418425343,1,1
11,No Deadline,120,0.551840539,1,1
11,No Deadline,121,0.651857413,1,1
11,No Deadline,122,0.751632501,1,1
11,No Deadline,123,0.65184715,1,1
11,No Deadline,124,0.534916799,0,1
11,No Deadline,125,0.718311755,1,1
11,No Deadline,126,0.518527339,0,1
11,No Deadline,127,0.601645828,1,1
11,No Deadline,128,0.935140351,1,1
11,No Deadline,129,0.651665434,1,1
11,No Deadline,130,1.084917236,0,1
11,No Deadline,131,1.118209004,0,1
11,No Deadline,132,1.38515561,1,1
11,No Deadline,133,0.718150263,0,1
11,No Deadline,134,1.118303786,0,1
11,No Deadline,135,0.734932435,1,1
11,No Deadline,136,0.451844191,1,1
11,No Deadline,137,1.068312253,1,1
11,No Deadline,138,0.451822156,0,1
11,No Deadline,139,0.684974709,0,1
11,No Deadline,140,0.518299138,1,1
11,No Deadline,141,0.484964808,1,1
11,No Deadline,142,0.868269149,1,1
11,No Deadline,143,0.58506107,1,1
11,No Deadline,144,1.068404017,1,1
11,No Deadline,145,0.85178038,0,1
11,No Deadline,146,0.618167801,0,1
11,No Deadline,147,0.768380865,1,1
11,No Deadline,148,0.918410401,1,1
11,No Deadline,149,0.551880686,1,1
11,No Deadline,150,0.501657933,1,1
11,No Deadline,151,0.768244427,1,1
11,No Deadline,152,0.73512864,0,1
11,No Deadline,153,1.301694517,0,1
11,No Deadline,154,0.451645873,0,1
11,No Deadline,155,0.401797721,1,1
11,No Deadline,156,0.551753907,1,1
11,No Deadline,157,0.451644968,1,1
11,No Deadline,158,0.618376986,0,1
11,No Deadline,159,0.851574515,1,1
11,No Deadline,160,0.601871313,1,1
11,No Deadline,161,0.518361923,1,1
11,No Deadline,162,0.918487072,0,1
11,No Deadline,163,0.734942698,0,1
11,No Deadline,164,0.585160078,0,1
11,No Deadline,165,0.085083558,0,1
11,No Deadline,166,0.334862223,1,1
11,No Deadline,167,0.15159646,1,1
11,No Deadline,168,0.201917316,0,1
11,No Deadline,169,0.018454442,0,1
11,No Deadline,170,0.251530626,1,1
11,No Deadline,171,0.051862423,0,1
11,No Deadline,172,0.101906781,0,1
11,No Deadline,173,0.018375054,1,1
11,No Deadline,174,0.135024379,1,1
11,No Deadline,175,0.118167047,0,1
11,No Deadline,176,0.168237967,0,1
11,No Deadline,177,0.118058077,0,1
11,No Deadline,178,0.035159338,1,1
11,No Deadline,179,0.068552227,1,1
11,No Deadline,180,0.801813297,0,1
11,No Deadline,181,0.65170558,1,1
11,No Deadline,182,0.518317249,1,1
11,No Deadline,183,0.651847753,0,1
11,No Deadline,184,0.568420166,1,1
11,No Deadline,185,0.334982663,0,1
11,No Deadline,186,0.351637754,0,1
11,No Deadline,187,0.251738603,0,1
11,No Deadline,188,0.251776637,0,1
11,No Deadline,189,0.234910248,0,1
11,No Deadline,190,0.235157165,1,1
11,No Deadline,191,0.218337262,1,1
11,No Deadline,192,0.2185226,1,1
11,No Deadline,193,0.218555502,1,1
11,No Deadline,194,0.218265119,0,1
11,No Deadline,195,0.151578349,1,1
11,No Deadline,196,0.201741335,1,1
11,No Deadline,197,0.151907671,0,1
11,No Deadline,198,0.168345729,0,1
11,No Deadline,199,0.118546175,1,1
12,Deadline,0,0.65185047,1,1
12,Deadline,1,0.435186384,1,1
12,Deadline,2,0.518507719,0,1
12,Deadline,3,0.585074049,1,1
12,Deadline,4,0.501567075,1,1
12,Deadline,5,0.56831331,0,1
12,Deadline,6,0.534887217,0,1
12,Deadline,7,0.568482952,1,1
12,Deadline,8,0.501665479,0,1
12,Deadline,9,0.618473579,1,1
12,Deadline,10,0.351839996,1,1
12,Deadline,11,0.351815546,0,1
12,Deadline,12,0.335196074,0,1
12,Deadline,13,0.485087361,0,1
12,Deadline,14,0.568298821,1,1
12,Deadline,15,0.53497083,0,1
12,Deadline,16,0.43529475,1,1
12,Deadline,17,0.45173643,1,1
12,Deadline,18,0.585218034,1,1
12,Deadline,19,0.601854107,1,1
12,Deadline,20,0.735172408,1,1
12,Deadline,21,0.351839694,0,1
12,Deadline,22,0.651852583,1,1
12,Deadline,23,0.418364368,1,1
12,Deadline,24,0.41853884,1,1
12,Deadline,25,0.618117392,0,1
12,Deadline,26,0.585168831,1,1
12,Deadline,27,0.535173374,1,1
12,Deadline,28,0.451909694,1,1
12,Deadline,29,0.718296361,1,1
12,Deadline,30,0.518466667,1,1
12,Deadline,31,1.101848825,1,1
12,Deadline,32,0.584930065,1,1
12,Deadline,33,0.535179713,1,1
12,Deadline,34,0.485150147,0,1
12,Deadline,35,0.451865019,1,1
12,Deadline,36,0.484933416,1,1
12,Deadline,37,0.51842652,1,1
12,Deadline,38,0.501499459,1,1
12,Deadline,39,0.401816738,0,1
12,Deadline,40,0.618332915,1,1
12,Deadline,41,0.568284634,1,1
12,Deadline,42,0.551848085,1,1
12,Deadline,43,0.701698622,1,1
12,Deadline,44,0.55187646,1,1
12,Deadline,45,0.601800679,1,1
12,Deadline,46,0.468479662,1,1
12,Deadline,47,0.518524019,1,1
12,Deadline,48,0.60155014,1,1
12,Deadline,49,0.518327814,1,1
12,Deadline,50,0.418547594,1,1
12,Deadline,51,0.384940087,1,1
12,Deadline,52,0.551662747,1,1
12,Deadline,53,0.418604342,1,1
12,Deadline,54,0.435176423,1,1
12,Deadline,55,0.601555876,1,1
12,Deadline,56,0.45180495,1,1
12,Deadline,57,0.468476643,1,1
12,Deadline,58,0.418231553,0,1
12,Deadline,59,0.518154852,1,1
12,Deadline,60,0.568400244,0,1
12,Deadline,61,0.551844161,1,1
12,Deadline,62,0.568376397,0,1
12,Deadline,63,0.768357924,1,1
12,Deadline,64,0.501808558,1,1
12,Deadline,65,0.784988564,0,1
12,Deadline,66,0.535027881,1,1
12,Deadline,67,0.451907581,0,1
12,Deadline,68,0.48492768,1,1
12,Deadline,69,0.551785602,1,1
12,Deadline,70,0.53495604,1,1
12,Deadline,71,0.418469112,1,1
12,Deadline,72,0.618523989,1,1
12,Deadline,73,0.48499107,1,1
12,Deadline,74,0.418474847,1,1
12,Deadline,75,0.551676331,1,1
12,Deadline,76,0.434961503,1,1
12,Deadline,77,0.401808588,1,1
12,Deadline,78,0.501810067,1,1
12,Deadline,79,0.451890979,1,1
12,Deadline,80,0.485139884,0,1
12,Deadline,81,0.701672059,0,1
12,Deadline,82,0.568434051,0,1
12,Deadline,83,0.885182626,1,1
12,Deadline,84,0.401772365,1,1
12,Deadline,85,0.535266647,1,1
12,Deadline,86,0.668500429,1,1
12,Deadline,87,0.468361335,0,1
12,Deadline,88,0.535195108,1,1
12,Deadline,89,0.534757118,1,1
12,Deadline,90,0.435232266,0,1
12,Deadline,91,0.635022115,0,1
12,Deadline,92,0.401667622,1,1
12,Deadline,93,0.36851682,1,1
12,Deadline,94,0.451717715,1,1
12,Deadline,95,0.401675168,1,1
12,Deadline,96,0.668292754,0,1
12,Deadline,97,0.418545179,1,1
12,Deadline,98,0.451651911,1,1
12,Deadline,99,0.401477454,1,1
12,Deadline,100,0.401701732,1,1
12,Deadline,101,0.518502285,1,1
12,Deadline,102,0.4684697,1,1
12,Deadline,103,0.451694472,0,1
12,Deadline,104,0.851360501,0,1
12,Deadline,105,0.434929507,0,1
12,Deadline,106,1.118413661,1,1
12,Deadline,107,0.668566535,0,1
12,Deadline,108,0.885151535,1,1
12,Deadline,109,0.568321762,0,1
12,Deadline,110,0.418511371,0,1
12,Deadline,111,0.56839632,1,1
12,Deadline,112,0.585102424,1,1
12,Deadline,113,0.535087044,1,1
12,Deadline,114,0.535166432,1,1
12,Deadline,115,0.63516459,1,1
12,Deadline,116,0.451587012,1,1
12,Deadline,117,0.801672331,1,1
12,Deadline,118,0.384999552,1,1
12,Deadline,119,0.651651246,1,1
12,Deadline,120,0.601797359,1,1
12,Deadline,121,0.48518818,1,1
12,Deadline,123,0.751627974,1,1
12,Deadline,124,0.801575134,1,1
12,Deadline,125,0.705232124,0,1
12,Deadline,126,0.501854439,1,1
12,Deadline,127,0.935020214,1,1
12,Deadline,128,0.501636501,1,1
12,Deadline,129,0.485169465,1,1
12,Deadline,130,0.635157044,0,1
12,Deadline,131,0.63481927,1,1
12,Deadline,132,0.418457339,1,1
12,Deadline,133,0.568563245,1,1
12,Deadline,134,0.534895065,1,1
12,Deadline,135,0.851609832,1,1
12,Deadline,136,0.735119584,1,1
12,Deadline,137,0.701809101,1,1
12,Deadline,138,0.635144366,1,1
12,Deadline,139,0.534924043,0,1
12,Deadline,140,0.618366119,1,1
12,Deadline,141,0.768500701,0,1
12,Deadline,142,0.91851937,1,1
12,Deadline,143,0.568513741,0,1
12,Deadline,144,0.871767937,1,1
12,Deadline,145,0.451856266,1,1
12,Deadline,146,0.485003446,0,1
12,Deadline,147,0.618377891,1,1
12,Deadline,148,1.151800513,0,1
12,Deadline,149,0.5349334,1,1
12,Deadline,150,0.735150071,0,1
12,Deadline,151,0.951780048,0,1
12,Deadline,152,0.618482635,1,1
12,Deadline,153,0.601832676,0,1
12,Deadline,154,0.785048935,1,1
12,Deadline,155,0.518524321,1,1
12,Deadline,156,0.751847119,1,1
12,Deadline,157,0.35187984,1,1
12,Deadline,158,0.668492883,0,1
12,Deadline,159,0.668563517,1,1
12,Deadline,160,0.918296904,1,1
12,Deadline,161,0.41850141,1,1
12,Deadline,162,0.601633754,1,1
12,Deadline,163,0.568485065,1,1
12,Deadline,164,0.868500671,1,1
12,Deadline,165,0.601707708,1,1
12,Deadline,166,0.785032937,1,1
12,Deadline,167,0.635182702,1,1
12,Deadline,168,0.58500251,1,1
12,Deadline,169,0.701588144,1,1
12,Deadline,170,0.535133228,1,1
12,Deadline,171,0.668330787,1,1
12,Deadline,172,0.835169963,1,1
12,Deadline,173,0.601823922,1,1
12,Deadline,174,0.718259233,1,1
12,Deadline,175,0.618293071,1,1
12,Deadline,176,0.53524763,1,1
12,Deadline,177,0.634893526,1,1
12,Deadline,178,0.818285162,1,1
12,Deadline,179,0.735236703,1,1
12,Deadline,180,0.701600822,1,1
12,Deadline,181,0.518175076,1,1
12,Deadline,182,0.985015671,0,1
12,Deadline,183,0.635122935,1,1
12,Deadline,184,0.518547262,0,1
12,Deadline,185,0.68499282,1,1
12,Deadline,186,0.501772939,0,1
12,Deadline,187,0.951686775,1,1
12,Deadline,188,0.651861035,1,1
12,Deadline,189,0.618185611,1,1
12,Deadline,190,0.418545179,1,1
12,Deadline,191,0.501851421,1,1
12,Deadline,192,0.46839635,1,1
12,Deadline,193,0.534943663,1,1
12,Deadline,194,0.851844674,1,1
12,Deadline,195,0.7517626,1,1
12,Deadline,196,0.501860778,1,1
12,Deadline,197,0.435190006,1,1
12,Deadline,198,0.918564649,1,1
12,Deadline,199,0.368279563,0,1
12,No Deadline,0,0.784743761,1,1
12,No Deadline,1,0.451850229,1,1
12,No Deadline,2,0.435167066,1,1
12,No Deadline,3,0.668571365,1,1
12,No Deadline,4,0.768351585,1,1
12,No Deadline,5,0.468300662,1,1
12,No Deadline,6,0.46831666,1,1
12,No Deadline,7,0.451562562,1,1
12,No Deadline,8,0.451731298,1,1
12,No Deadline,9,0.634922202,1,1
12,No Deadline,10,0.618421358,1,1
12,No Deadline,11,0.751795804,1,1
12,No Deadline,12,0.535199636,0,1
12,No Deadline,13,1.501786824,1,1
12,No Deadline,14,0.551704403,1,1
12,No Deadline,15,0.618487766,1,1
12,No Deadline,16,0.734946018,1,1
12,No Deadline,17,0.518340492,1,1
12,No Deadline,18,0.60186105,0,1
12,No Deadline,19,0.468310925,0,1
12,No Deadline,20,0.885195304,0,1
12,No Deadline,21,0.918256456,1,1
12,No Deadline,22,0.468451589,1,1
12,No Deadline,23,0.635130179,1,1
12,No Deadline,24,0.46824331,1,1
12,No Deadline,25,1.018435123,0,1
12,No Deadline,26,1.035033163,1,1
12,No Deadline,27,0.468425932,1,1
12,No Deadline,28,0.835078803,0,1
12,No Deadline,29,0.618210363,1,1
12,No Deadline,30,0.468465776,1,1
12,No Deadline,31,0.8682613,1,1
12,No Deadline,32,0.551603886,0,1
12,No Deadline,33,0.835115328,1,1
12,No Deadline,34,0.78524846,1,1
12,No Deadline,35,0.668282792,1,1
12,No Deadline,36,0.501518174,1,1
12,No Deadline,37,1.318327874,0,1
12,No Deadline,38,0.434972974,1,1
12,No Deadline,39,0.651739388,1,1
12,No Deadline,40,0.468264138,1,1
12,No Deadline,41,0.618249604,1,1
12,No Deadline,42,0.568543021,1,1
12,No Deadline,43,1.018505455,1,1
12,No Deadline,44,0.401727389,1,1
12,No Deadline,45,0.951599539,1,1
12,No Deadline,46,0.418399987,0,1
12,No Deadline,47,0.635169118,1,1
12,No Deadline,48,0.718506149,1,1
12,No Deadline,49,0.601782266,0,1
12,No Deadline,50,0.751811501,1,1
12,No Deadline,51,0.701639157,0,1
12,No Deadline,52,0.668069684,1,1
12,No Deadline,53,0.751816934,0,1
12,No Deadline,54,0.468470606,1,1
12,No Deadline,55,0.818543549,1,1
12,No Deadline,56,0.568362814,1,1
12,No Deadline,57,0.918173446,1,1
12,No Deadline,58,0.451858379,1,1
12,No Deadline,59,0.518539715,0,1
12,No Deadline,60,0.585176981,1,1
12,No Deadline,61,0.651710108,1,1
12,No Deadline,62,0.685182988,1,1
12,No Deadline,63,0.568314819,1,1
12,No Deadline,64,0.651832661,0,1
12,No Deadline,65,0.785009392,1,1
12,No Deadline,66,0.401814625,1,1
12,No Deadline,67,0.518300043,1,1
12,No Deadline,68,0.484977184,1,1
12,No Deadline,69,0.485215951,1,1
12,No Deadline,70,0.518505606,1,1
12,No Deadline,71,0.468514978,1,1
12,No Deadline,72,0.634867264,0,1
12,No Deadline,73,0.468573538,0,1
12,No Deadline,74,0.518485382,1,1
12,No Deadline,75,0.535039653,1,1
12,No Deadline,76,0.685034174,1,1
12,No Deadline,77,1.068444465,0,1
12,No Deadline,78,0.451771143,0,1
12,No Deadline,79,0.568478726,1,1
12,No Deadline,80,0.651713127,1,1
12,No Deadline,81,0.501807652,0,1
12,No Deadline,82,0.535163715,1,1
12,No Deadline,83,0.785107495,0,1
12,No Deadline,84,0.434947014,0,1
12,No Deadline,85,0.8682287,1,1
12,No Deadline,86,0.468333866,1,1
12,No Deadline,87,0.518436481,1,1
12,No Deadline,88,0.668442473,1,1
12,No Deadline,89,0.501804935,1,1
12,No Deadline,90,0.501801615,0,1
12,No Deadline,91,0.868424,1,1
12,No Deadline,92,0.518543639,1,1
12,No Deadline,93,0.468314246,1,1
12,No Deadline,94,0.385157421,1,1
12,No Deadline,95,0.984933868,1,1
12,No Deadline,96,0.585018508,1,1
12,No Deadline,97,0.501774448,1,1
12,No Deadline,98,0.63498378,1,1
12,No Deadline,99,0.635158251,1,1
12,No Deadline,100,0.51834834,1,1
12,No Deadline,101,0.868307484,1,1
12,No Deadline,102,0.585104537,1,1
12,No Deadline,103,0.751814519,1,1
12,No Deadline,104,1.001853685,1,1
12,No Deadline,105,0.434832611,1,1
12,No Deadline,106,0.768351887,1,1
12,No Deadline,107,0.651865865,1,1
12,No Deadline,108,0.501847497,1,1
12,No Deadline,109,0.50174215,1,1
12,No Deadline,110,0.668511598,0,1
12,No Deadline,111,0.434922564,1,1
12,No Deadline,112,0.635151611,1,1
12,No Deadline,113,1.001827423,1,1
12,No Deadline,114,0.618391475,1,1
12,No Deadline,115,0.384941898,1,1
12,No Deadline,116,0.668505259,0,1
12,No Deadline,117,0.918545934,0,1
12,No Deadline,118,0.768207299,0,1
12,No Deadline,119,0.451819439,1,1
12,No Deadline,120,0.718476568,1,1
12,No Deadline,121,0.551653993,1,1
12,No Deadline,122,0.568514043,0,1
12,No Deadline,123,0.468465776,1,1
12,No Deadline,124,0.435289618,0,1
12,No Deadline,125,0.401856281,0,1
12,No Deadline,126,0.451727374,1,1
12,No Deadline,127,0.468491132,1,1
12,No Deadline,128,0.351482903,1,1
12,No Deadline,129,0.368076113,0,1
12,No Deadline,130,0.351750949,1,1
12,No Deadline,131,0.401556842,1,1
12,No Deadline,132,0.468303983,1,1
12,No Deadline,133,0.401542353,1,1
12,No Deadline,134,0.468286475,0,1
12,No Deadline,135,0.418383687,1,1
12,No Deadline,136,0.485067741,0,1
12,No Deadline,137,0.351811018,0,1
12,No Deadline,138,0.418529483,1,1
12,No Deadline,139,0.401800136,0,1
12,No Deadline,140,0.435242831,0,1
12,No Deadline,141,0.851651488,1,1
12,No Deadline,142,0.534896574,1,1
12,No Deadline,143,0.468306699,0,1
12,No Deadline,144,0.534934306,1,1
12,No Deadline,145,0.351810414,0,1
12,No Deadline,146,0.468182637,0,1
12,No Deadline,147,0.568576225,0,1
12,No Deadline,148,0.368158217,0,1
12,No Deadline,149,0.401799532,0,1
12,No Deadline,150,0.351640772,0,1
12,No Deadline,151,0.41850624,1,1
12,No Deadline,152,0.285105231,1,1
12,No Deadline,153,0.368497199,1,1
12,No Deadline,154,0.385137499,0,1
12,No Deadline,155,0.501842365,0,1
12,No Deadline,156,0.601689295,1,1
12,No Deadline,157,0.535221973,0,1
12,No Deadline,158,0.53514983,1,1
12,No Deadline,159,0.535203862,0,1
12,No Deadline,160,0.518217335,1,1
12,No Deadline,161,0.551487672,0,1
12,No Deadline,162,0.701791593,1,1
12,No Deadline,163,0.38494884,1,1
12,No Deadline,164,0.501698381,0,1
12,No Deadline,165,0.568296708,1,1
12,No Deadline,166,0.501574923,1,1
12,No Deadline,167,0.435145332,1,1
12,No Deadline,168,0.48482173,1,1
12,No Deadline,169,0.651788288,1,1
12,No Deadline,170,0.535202654,1,1
12,No Deadline,171,0.451857775,1,1
12,No Deadline,172,0.51831574,1,1
12,No Deadline,173,0.518344718,0,1
12,No Deadline,174,0.384803045,1,1
12,No Deadline,175,0.468258704,1,1
12,No Deadline,176,0.751724567,1,1
12,No Deadline,177,0.351877124,0,1
12,No Deadline,178,0.485126602,1,1
12,No Deadline,179,0.601661826,1,1
12,No Deadline,180,0.468486,1,1
12,No Deadline,181,0.485174295,1,1
12,No Deadline,182,0.535057161,0,1
12,No Deadline,183,0.351659185,1,1
12,No Deadline,184,0.418549405,0,1
12,No Deadline,185,0.518499569,0,1
12,No Deadline,186,0.551847784,1,1
12,No Deadline,187,0.634999174,1,1
12,No Deadline,188,0.501829084,0,1
12,No Deadline,189,0.518618801,0,1
12,No Deadline,190,0.818272484,1,1
12,No Deadline,191,0.46825961,1,1
12,No Deadline,192,0.56856083,1,1
12,No Deadline,193,0.635169118,0,1
12,No Deadline,194,0.568499856,1,1
12,No Deadline,195,0.468492641,1,1
12,No Deadline,196,0.48514411,1,1
12,No Deadline,197,0.45150853,0,1
12,No Deadline,198,0.751638538,0,1
12,No Deadline,199,0.601867993,1,1
13,No Deadline,0,1.251802898,1,1
13,No Deadline,1,0.46845491,1,1
13,No Deadline,2,0.501838743,0,1
13,No Deadline,3,0.65183417,1,1
13,No Deadline,4,0.368547911,1,1
13,No Deadline,5,0.368519235,0,1
13,No Deadline,6,0.585139853,1,1
13,No Deadline,7,0.335062352,1,1
13,No Deadline,8,0.468527354,0,1
13,No Deadline,9,0.385228055,1,1
13,No Deadline,10,0.551905136,0,1
13,No Deadline,11,0.385203303,1,1
13,No Deadline,12,0.385199983,1,1
13,No Deadline,13,0.301917587,1,1
13,No Deadline,14,0.318401829,1,1
13,No Deadline,15,0.368318502,1,1
13,No Deadline,16,0.335230183,0,1
13,No Deadline,17,0.301899778,1,1
13,No Deadline,18,0.368385513,1,1
13,No Deadline,19,0.335089217,1,1
13,No Deadline,20,0.318559396,0,1
13,No Deadline,21,0.368517725,1,1
13,No Deadline,22,0.451868943,0,1
13,No Deadline,23,0.435221097,1,1
13,No Deadline,24,0.351816149,0,1
13,No Deadline,25,0.535150132,0,1
13,No Deadline,26,0.468461852,0,1
13,No Deadline,27,0.618453959,0,1
13,No Deadline,28,0.501772335,1,1
13,No Deadline,29,0.485168862,0,1
13,No Deadline,30,0.43505387,1,1
13,No Deadline,31,0.501708342,0,1
13,No Deadline,32,0.701806384,1,1
13,No Deadline,33,0.418559668,0,1
13,No Deadline,34,0.551840841,1,1
13,No Deadline,35,0.40182036,1,1
13,No Deadline,36,0.551837822,0,1
13,No Deadline,37,0.485169163,0,1
13,No Deadline,38,0.385103993,1,1
13,No Deadline,39,0.368536138,1,1
13,No Deadline,40,0.618484748,1,1
13,No Deadline,41,0.851798793,1,1
13,No Deadline,42,0.435165254,0,1
13,No Deadline,43,0.535167941,0,1
13,No Deadline,44,0.635096673,0,1
13,No Deadline,45,0.418610379,0,1
13,No Deadline,46,0.485152561,0,1
13,No Deadline,47,0.435228946,1,1
13,No Deadline,48,0.418503523,0,1
13,No Deadline,49,0.735204405,0,1
13,No Deadline,50,0.585019414,1,1
13,No Deadline,51,0.418267473,0,1
13,No Deadline,52,0.451733109,1,1
13,No Deadline,53,0.385132066,0,1
13,No Deadline,54,0.318464614,1,1
13,No Deadline,55,0.285084101,0,1
13,No Deadline,56,0.401747915,0,1
13,No Deadline,57,0.46841597,1,1
13,No Deadline,58,0.385113954,0,1
13,No Deadline,59,0.268457385,0,1
13,No Deadline,60,0.318501742,1,1
13,No Deadline,61,0.318569357,1,1
13,No Deadline,62,0.685211061,1,1
13,No Deadline,63,0.535216841,1,1
13,No Deadline,64,0.43519061,1,1
13,No Deadline,65,0.435312559,1,1
13,No Deadline,66,0.468519204,1,1
13,No Deadline,67,0.51858771,0,1
13,No Deadline,68,0.451907279,1,1
13,No Deadline,69,0.43513688,1,1
13,No Deadline,70,0.46844525,1,1
13,No Deadline,71,0.435128126,0,1
13,No Deadline,72,0.468345638,0,1
13,No Deadline,73,0.418557555,1,1
13,No Deadline,74,0.401703543,1,1
13,No Deadline,75,0.601781662,1,1
13,No Deadline,76,0.935145181,1,1
13,No Deadline,77,0.385108219,1,1
13,No Deadline,78,0.401773573,1,1
13,No Deadline,79,0.468508941,0,1
13,No Deadline,80,0.418520427,1,1
13,No Deadline,81,0.451910599,1,1
13,No Deadline,82,0.418527068,0,1
13,No Deadline,83,0.535079498,0,1
13,No Deadline,84,0.468467587,1,1
13,No Deadline,85,0.41841176,1,1
13,No Deadline,86,0.33510914,1,1
13,No Deadline,87,0.36844196,0,1
13,No Deadline,88,0.468482076,1,1
13,No Deadline,89,0.401841792,0,1
13,No Deadline,90,0.468526751,1,1
13,No Deadline,91,0.468472719,1,1
13,No Deadline,92,0.385162251,1,1
13,No Deadline,93,0.368485427,1,1
13,No Deadline,94,0.368510783,1,1
13,No Deadline,95,0.451803139,1,1
13,No Deadline,96,0.301816164,0,1
13,No Deadline,97,0.401806173,0,1
13,No Deadline,98,0.435160727,0,1
13,No Deadline,99,0.918466546,0,1
13,No Deadline,100,0.785134963,1,1
13,No Deadline,101,0.401782025,0,1
13,No Deadline,102,0.368333896,1,1
13,No Deadline,103,0.485148637,1,1
13,No Deadline,104,0.401815229,1,1
13,No Deadline,105,0.451572221,1,1
13,No Deadline,106,0.651791307,1,1
13,No Deadline,107,0.701824194,1,1
13,No Deadline,108,0.351907309,1,1
13,No Deadline,109,0.401852658,0,1
13,No Deadline,110,0.36849901,1,1
13,No Deadline,111,0.618508594,1,1
13,No Deadline,112,0.735154901,1,1
13,No Deadline,113,0.335160757,0,1
13,No Deadline,114,0.301712628,0,1
13,No Deadline,115,0.418598003,0,1
13,No Deadline,116,0.401848734,1,1
13,No Deadline,117,0.335143853,1,1
13,No Deadline,118,0.335263689,1,1
13,No Deadline,119,0.318582639,1,1
13,No Deadline,120,0.25173317,0,1
13,No Deadline,121,0.351781134,0,1
13,No Deadline,122,0.351872294,0,1
13,No Deadline,123,0.385091315,1,1
13,No Deadline,124,0.351897952,1,1
13,No Deadline,125,0.318555472,1,1
13,No Deadline,126,0.385104597,1,1
13,No Deadline,127,0.40181221,0,1
13,No Deadline,128,0.20193754,1,1
13,No Deadline,129,0.41850956,1,1
13,No Deadline,130,0.268420559,0,1
13,No Deadline,131,0.401792288,0,1
13,No Deadline,132,0.368524064,1,1
13,No Deadline,133,0.351827922,0,1
13,No Deadline,134,0.418604342,0,1
13,No Deadline,135,0.33521177,0,1
13,No Deadline,136,0.351883463,1,1
13,No Deadline,137,0.368393362,0,1
13,No Deadline,138,0.451912712,1,1
13,No Deadline,139,0.31852589,1,1
13,No Deadline,140,0.435121184,1,1
13,No Deadline,141,0.335207242,1,1
13,No Deadline,142,0.385155912,1,1
13,No Deadline,143,0.351805886,0,1
13,No Deadline,144,0.335041525,1,1
13,No Deadline,145,0.418549103,1,1
13,No Deadline,146,0.485103963,0,1
13,No Deadline,147,0.335221731,0,1
13,No Deadline,148,0.385060828,0,1
13,No Deadline,149,0.451758465,0,1
13,No Deadline,150,0.335269726,0,1
13,No Deadline,151,0.501832102,1,1
13,No Deadline,152,0.41856812,0,1
13,No Deadline,153,0.418432286,0,1
13,No Deadline,154,0.335213279,0,1
13,No Deadline,155,0.485170673,1,1
13,No Deadline,156,0.401712598,1,1
13,No Deadline,157,0.451884338,1,1
13,No Deadline,158,0.468463965,1,1
13,No Deadline,159,0.35181947,1,1
13,No Deadline,160,0.401823379,0,1
13,No Deadline,161,0.351990319,1,1
13,No Deadline,162,0.451844795,1,1
13,No Deadline,163,0.368491464,1,1
13,No Deadline,164,0.318333006,1,1
13,No Deadline,165,0.351813131,0,1
13,No Deadline,166,0.51848025,1,1
13,No Deadline,167,0.485133847,0,1
13,No Deadline,168,0.468121663,1,1
13,No Deadline,169,0.401835151,1,1
13,No Deadline,170,0.468405707,0,1
13,No Deadline,171,0.468505621,0,1
13,No Deadline,172,0.385003778,1,1
13,No Deadline,173,0.468520714,0,1
13,No Deadline,174,0.551783489,1,1
13,No Deadline,175,0.368429282,1,1
13,No Deadline,176,0.43504723,0,1
13,No Deadline,177,0.468501697,1,1
13,No Deadline,178,0.41841508,1,1
13,No Deadline,179,0.401724672,1,1
13,No Deadline,180,0.418495977,1,1
13,No Deadline,181,0.435102771,1,1
13,No Deadline,182,0.4851589,1,1
13,No Deadline,183,0.551874045,0,1
13,No Deadline,184,0.41850624,0,1
13,No Deadline,185,0.501741244,1,1
13,No Deadline,186,0.468429856,0,1
13,No Deadline,187,0.335220222,0,1
13,No Deadline,188,0.468395444,1,1
13,No Deadline,189,0.485119659,0,1
13,No Deadline,190,0.468559653,0,1
13,No Deadline,191,0.501819726,1,1
13,No Deadline,192,0.468564181,1,1
13,No Deadline,193,0.485165843,1,1
13,No Deadline,194,0.435197553,1,1
13,No Deadline,195,0.468521619,0,1
13,No Deadline,196,0.468406009,1,1
13,No Deadline,197,0.435246453,0,1
13,No Deadline,198,0.435126013,0,1
13,No Deadline,199,0.151874467,0,1
13,Deadline,0,0.785134963,1,1
13,Deadline,1,0.851854636,0,1
13,Deadline,2,0.601747855,1,1
13,Deadline,3,0.518489909,1,1
13,Deadline,4,0.51845248,1,1
13,Deadline,5,0.501790145,0,1
13,Deadline,6,0.501866212,1,1
13,Deadline,7,0.351852674,0,1
13,Deadline,8,0.335232598,1,1
13,Deadline,9,0.418596192,1,1
13,Deadline,10,0.501852628,0,1
13,Deadline,11,0.485054157,1,1
13,Deadline,12,0.43520691,1,1
13,Deadline,13,0.485189991,1,1
13,Deadline,14,0.501856552,0,1
13,Deadline,15,0.418576572,1,1
13,Deadline,16,0.385140518,0,1
13,Deadline,17,0.468442232,0,1
13,Deadline,18,0.451919051,1,1
13,Deadline,19,0.435252188,1,1
13,Deadline,20,0.418497486,0,1
13,Deadline,21,0.351828827,1,1
13,Deadline,22,0.385165873,0,1
13,Deadline,23,0.568576225,0,1
13,Deadline,24,0.701865849,1,1
13,Deadline,25,0.418570233,0,1
13,Deadline,26,0.401834547,0,1
13,Deadline,27,0.385194851,1,1
13,Deadline,28,0.418491147,1,1
13,Deadline,29,0.468511356,1,1
13,Deadline,30,0.335202413,0,1
13,Deadline,31,0.385213264,1,1
13,Deadline,32,0.401895824,0,1
13,Deadline,33,0.568530343,1,1
13,Deadline,34,0.335220826,1,1
13,Deadline,35,0.385158327,0,1
13,Deadline,36,0.318202907,0,1
13,Deadline,37,0.401874996,1,1
13,Deadline,38,0.335196074,0,1
13,Deadline,39,0.385193946,1,1
13,Deadline,40,0.418567214,1,1
13,Deadline,41,0.335195168,0,1
13,Deadline,42,0.335223241,0,1
13,Deadline,43,0.651882165,0,1
13,Deadline,44,0.51850621,1,1
13,Deadline,45,0.468491736,1,1
13,Deadline,46,0.351817659,0,1
13,Deadline,47,0.451857171,1,1
13,Deadline,48,0.335016773,0,1
13,Deadline,49,0.385063545,0,1
13,Deadline,50,0.435183064,1,1
13,Deadline,51,0.451962518,1,1
13,Deadline,52,0.501794974,1,1
13,Deadline,53,0.601692012,0,1
13,Deadline,54,0.401871072,0,1
13,Deadline,55,0.418533407,1,1
13,Deadline,56,0.368497199,1,1
13,Deadline,57,0.55188793,1,1
13,Deadline,58,0.335179472,1,1
13,Deadline,59,0.518381242,1,1
13,Deadline,60,0.31850959,0,1
13,Deadline,61,0.485147128,1,1
13,Deadline,62,0.351696011,0,1
13,Deadline,63,0.501792559,1,1
13,Deadline,64,0.335119101,1,1
13,Deadline,65,0.501721322,0,1
13,Deadline,67,0.468450684,0,1
13,Deadline,68,0.418398478,1,1
13,Deadline,69,0.685218909,1,1
13,Deadline,70,0.401829718,1,1
13,Deadline,71,0.501775957,0,1
13,Deadline,72,0.301931774,1,1
13,Deadline,73,0.385155007,0,1
13,Deadline,74,0.351810112,1,1
13,Deadline,75,0.351875011,0,1
13,Deadline,76,0.301824013,1,1
13,Deadline,77,0.30189042,1,1
13,Deadline,78,0.301673689,1,1
13,Deadline,79,0.335163172,1,1
13,Deadline,80,0.801870347,1,1
13,Deadline,81,0.551837822,0,1
13,Deadline,82,0.45186351,0,1
13,Deadline,83,0.351859314,0,1
13,Deadline,84,0.485071966,0,1
13,Deadline,85,0.335167699,1,1
13,Deadline,86,0.518526132,1,1
13,Deadline,87,0.301888911,1,1
13,Deadline,88,0.285126361,0,1
13,Deadline,89,0.168493637,1,1
13,Deadline,90,0.368531611,0,1
13,Deadline,91,0.351683032,1,1
13,Deadline,92,0.451804045,1,1
13,Deadline,93,0.335259463,0,1
13,Deadline,94,0.285191259,1,1
13,Deadline,96,0.418498995,1,1
13,Deadline,97,0.418469112,0,1
13,Deadline,98,0.368508972,1,1
13,Deadline,99,0.251770599,0,1
13,Deadline,100,0.318520759,1,1
13,Deadline,101,0.401779912,1,1
13,Deadline,102,0.20178933,1,1
13,Deadline,103,0.43517914,0,1
13,Deadline,104,0.335342775,0,1
13,Deadline,105,0.46839635,1,1
13,Deadline,106,0.368497803,1,1
13,Deadline,107,0.835162115,1,1
13,Deadline,108,0.768503719,0,1
13,Deadline,109,0.48511483,1,1
13,Deadline,110,0.36849901,1,1
13,Deadline,111,0.318584752,0,1
13,Deadline,112,0.401705957,1,1
13,Deadline,113,0.468486,1,1
13,Deadline,114,0.41859257,1,1
13,Deadline,115,0.385187607,1,1
13,Deadline,116,0.335193357,0,1
13,Deadline,117,0.918485563,1,1
13,Deadline,118,0.435329463,1,1
13,Deadline,119,0.685120505,1,1
13,Deadline,120,0.518478439,1,1
13,Deadline,121,0.568469066,1,1
13,Deadline,122,0.401889787,0,1
13,Deadline,123,0.58519298,1,1
13,Deadline,124,0.601811848,0,1
13,Deadline,125,0.451828193,0,1
13,Deadline,126,0.351832751,0,1
13,Deadline,127,0.435100356,1,1
13,Deadline,128,0.368540666,1,1
13,Deadline,129,0.468327527,1,1
13,Deadline,130,0.318525589,0,1
13,Deadline,131,0.368472447,1,1
13,Deadline,132,0.368484823,1,1
13,Deadline,133,0.301829446,0,1
13,Deadline,134,0.468384276,0,1
13,Deadline,135,0.318477896,1,1
13,Deadline,136,0.368513198,0,1
13,Deadline,137,0.35182762,0,1
13,Deadline,138,0.301862348,0,1
13,Deadline,139,0.41845251,1,1
13,Deadline,140,0.485205084,1,1
13,Deadline,141,0.585052316,0,1
13,Deadline,142,0.351859616,1,1
13,Deadline,143,0.484991673,1,1
13,Deadline,144,0.335151399,1,1
13,Deadline,145,0.518469987,1,1
13,Deadline,146,0.41842323,1,1
13,Deadline,147,0.568585582,0,1
13,Deadline,148,0.468489925,1,1
13,Deadline,149,0.485046913,1,1
13,Deadline,150,0.485149845,1,1
13,Deadline,151,0.551889439,0,1
13,Deadline,152,0.435235888,1,1
13,Deadline,153,0.401811606,1,1
13,Deadline,154,0.618493502,0,1
13,Deadline,155,0.451900638,1,1
13,Deadline,156,0.468416876,1,1
13,Deadline,157,0.418505334,1,1
13,Deadline,158,0.385084373,1,1
13,Deadline,159,0.351758797,0,1
13,Deadline,160,0.501811576,1,1
13,Deadline,161,0.351825507,0,1
13,Deadline,162,0.368525875,0,1
13,Deadline,163,0.401843905,1,1
13,Deadline,164,0.785228538,1,1
13,Deadline,165,0.83518415,1,1
13,Deadline,166,0.768474439,1,1
13,Deadline,167,0.518477835,1,1
13,Deadline,168,0.585216826,1,1
13,Deadline,169,0.335223241,0,1
13,Deadline,170,0.518575334,1,1
13,Deadline,171,0.451771143,1,1
13,Deadline,172,0.401677583,1,1
13,Deadline,173,0.485176408,0,1
13,Deadline,174,0.518451272,1,1
13,Deadline,175,0.485173691,0,1
13,Deadline,176,0.301918795,0,1
13,Deadline,177,0.318471255,0,1
13,Deadline,178,0.568540908,0,1
13,Deadline,179,0.668597626,1,1
13,Deadline,180,0.518419879,1,1
13,Deadline,181,0.568426505,0,1
13,Deadline,183,0.768491041,1,1
13,Deadline,184,0.51849655,1,1
13,Deadline,185,0.36843713,0,1
13,Deadline,186,0.35181464,1,1
13,Deadline,187,0.401801645,1,1
13,Deadline,188,0.468429554,1,1
13,Deadline,189,0.435181856,1,1
13,Deadline,190,0.418614002,1,1
13,Deadline,191,0.601808527,1,1
13,Deadline,192,0.635212585,0,1
13,Deadline,193,0.668296376,1,1
13,Deadline,194,0.368324841,0,1
13,Deadline,195,0.318548831,1,1
13,Deadline,196,0.46847453,1,1
13,Deadline,197,0.418526162,0,1
13,Deadline,198,0.468486,1,1
13,Deadline,199,0.485137469,1,1
14,Deadline,0,0.485089172,1,1
14,Deadline,1,0.501790446,1,1
14,Deadline,2,0.418440436,1,1
14,Deadline,3,0.468505621,1,1
14,Deadline,4,0.41848028,1,1
14,Deadline,5,0.435167669,1,1
14,Deadline,6,0.435019157,1,1
14,Deadline,7,0.468513167,0,1
14,Deadline,8,0.551845972,1,1
14,Deadline,9,0.435134465,0,1
14,Deadline,10,0.551848085,0,1
14,Deadline,11,0.635105427,0,1
14,Deadline,12,0.751828103,1,1
14,Deadline,13,0.418527068,1,1
14,Deadline,14,0.451872566,1,1
14,Deadline,15,0.284992941,1,1
14,Deadline,16,0.435018252,0,1
14,Deadline,17,0.351829431,1,1
14,Deadline,18,0.418501108,1,1
14,Deadline,19,0.418560875,1,1
14,Deadline,20,0.435144728,1,1
14,Deadline,21,0.3186089,0,1
14,Deadline,22,0.251821915,1,1
14,Deadline,23,0.401803758,1,1
14,Deadline,24,0.418464282,0,1
14,Deadline,25,0.318516231,1,1
14,Deadline,26,0.251787503,1,1
14,Deadline,27,0.435156803,1,1
14,Deadline,28,0.135103465,0,1
14,Deadline,29,0.11816916,1,1
14,Deadline,30,0.351896141,0,1
14,Deadline,31,0.418502618,1,1
14,Deadline,32,0.468508941,0,1
14,Deadline,33,0.435084659,1,1
14,Deadline,34,0.435229247,0,1
14,Deadline,35,0.851827167,1,1
14,Deadline,36,0.351702652,1,1
14,Deadline,37,0.451814912,0,1
14,Deadline,38,0.635237035,1,1
14,Deadline,39,0.351894329,1,1
14,Deadline,40,0.568437976,1,1
14,Deadline,41,0.301844539,1,1
14,Deadline,42,0.36845011,1,1
14,Deadline,43,0.351734951,1,1
14,Deadline,44,0.368361667,1,1
14,Deadline,45,0.451819439,0,1
14,Deadline,46,0.535054444,0,1
14,Deadline,47,0.468273193,1,1
14,Deadline,48,0.351801962,0,1
14,Deadline,49,0.351748232,0,1
14,Deadline,50,0.30184967,0,1
14,Deadline,51,0.351808603,1,1
14,Deadline,52,0.08516204,0,1
14,Deadline,53,0.118478862,1,1
14,Deadline,54,0.435247057,1,1
14,Deadline,55,0.468501093,0,1
14,Deadline,56,0.551761453,0,1
14,Deadline,57,0.30188378,0,1
14,Deadline,58,0.501881304,1,1
14,Deadline,59,0.368489653,0,1
14,Deadline,60,0.551903928,0,1
14,Deadline,61,0.568559623,1,1
14,Deadline,62,0.435163141,1,1
14,Deadline,63,0.018529301,0,1
14,Deadline,64,0.518504097,0,1
14,Deadline,65,0.468472719,1,1
14,Deadline,66,0.401777799,0,1
14,Deadline,67,0.30181375,0,1
14,Deadline,68,0.085175623,1,1
14,Deadline,69,0.535208389,1,1
14,Deadline,70,0.551810354,1,1
14,Deadline,71,0.485173389,0,1
14,Deadline,72,0.468411443,1,1
14,Deadline,73,0.618463316,1,1
14,Deadline,74,0.318526494,0,1
14,Deadline,75,0.568462124,0,1
14,Deadline,76,0.668582835,0,1
14,Deadline,77,0.618472674,1,1
14,Deadline,78,0.068509968,1,1
14,Deadline,79,0.384992609,1,1
14,Deadline,80,0.418494166,1,1
14,Deadline,81,0.46842563,0,1
14,Deadline,82,0.468413556,1,1
14,Deadline,83,0.435206608,1,1
14,Deadline,84,0.151734407,0,1
14,Deadline,85,0.43513356,1,1
14,Deadline,86,0.468457626,1,1
14,Deadline,87,0.468514978,1,1
14,Deadline,88,0.318369832,1,1
14,Deadline,89,0.401809192,1,1
14,Deadline,90,0.335174642,0,1
14,Deadline,91,0.451756352,0,1
14,Deadline,92,0.451839362,0,1
14,Deadline,93,0.185175895,1,1
14,Deadline,94,0.401811606,0,1
14,Deadline,95,0.668488959,1,1
14,Deadline,96,0.435142615,1,1
14,Deadline,97,0.285099797,0,1
14,Deadline,98,0.301845142,0,1
14,Deadline,99,0.20176005,1,1
14,Deadline,100,0.435164349,1,1
14,Deadline,101,0.551814278,1,1
14,Deadline,102,0.451883734,1,1
14,Deadline,103,0.38511486,1,1
14,Deadline,104,0.468357411,1,1
14,Deadline,105,0.301827937,0,1
14,Deadline,106,0.435133258,0,1
14,Deadline,107,0.385100673,1,1
14,Deadline,108,0.351766947,1,1
14,Deadline,109,0.451873471,1,1
14,Deadline,110,0.435207816,1,1
14,Deadline,111,0.568312706,1,1
14,Deadline,112,0.335151399,1,1
14,Deadline,113,0.585165813,0,1
14,Deadline,114,0.368483616,0,1
14,Deadline,115,0.335201205,1,1
14,Deadline,116,0.235131205,1,1
14,Deadline,117,0.551722212,0,1
14,Deadline,118,0.451721639,0,1
14,Deadline,119,0.601832374,1,1
14,Deadline,120,0.985141846,0,1
14,Deadline,121,1.151789948,1,1
14,Deadline,122,0.585094877,1,1
14,Deadline,123,0.635101503,0,1
14,Deadline,124,0.701749938,0,1
14,Deadline,125,0.735109019,0,1
14,Deadline,126,0.735117169,1,1
14,Deadline,127,1.168416665,1,1
14,Deadline,128,0.551828465,0,1
14,Deadline,129,0.601831166,0,1
14,Deadline,130,0.618331708,1,1
14,Deadline,131,0.768457536,1,1
14,Deadline,132,0.71840865,1,1
14,Deadline,133,0.668439756,0,1
14,Deadline,134,0.718352506,1,1
14,Deadline,135,0.368428377,1,1
14,Deadline,136,0.735135582,1,1
14,Deadline,137,0.818381453,0,1
14,Deadline,138,0.651578198,1,1
14,Deadline,139,0.751786447,1,1
14,Deadline,140,0.935072133,1,1
14,Deadline,141,0.635154931,1,1
14,Deadline,142,0.618459996,1,1
14,Deadline,143,0.485068948,0,1
14,Deadline,144,0.418513484,1,1
14,Deadline,145,0.435107298,0,1
14,Deadline,146,0.335161662,0,1
14,Deadline,147,0.235110679,1,1
14,Deadline,148,0.618475994,1,1
14,Deadline,149,0.601824828,0,1
14,Deadline,150,1.101767626,1,1
14,Deadline,151,0.568499856,0,1
14,Deadline,152,0.168449869,1,1
14,Deadline,153,0.135113426,1,1
14,Deadline,154,0.385179457,0,1
14,Deadline,155,0.168594155,0,1
14,Deadline,156,0.451846908,0,1
14,Deadline,157,0.185200647,0,1
14,Deadline,158,0.085184679,0,1
14,Deadline,159,0.501772637,1,1
14,Deadline,160,0.251837611,0,1
14,Deadline,161,0.11847856,1,1
14,Deadline,162,0.668177445,0,1
14,Deadline,163,0.151703618,0,1
14,Deadline,164,0.51833204,1,1
14,Deadline,165,0.435145332,0,1
14,Deadline,166,0.435139295,0,1
14,Deadline,167,0.735101473,1,1
14,Deadline,168,0.851712764,0,1
14,Deadline,169,0.485141091,1,1
14,Deadline,170,0.985107736,0,1
14,Deadline,171,0.401837566,1,1
14,Deadline,173,0.718463588,0,1
14,Deadline,174,0.918567063,1,1
14,Deadline,175,0.785272609,1,1
14,Deadline,176,0.335164077,1,1
14,Deadline,177,0.201873547,0,1
14,Deadline,178,0.568477518,1,1
14,Deadline,179,0.401724672,1,1
14,Deadline,180,0.418497486,1,1
14,Deadline,181,0.535180317,1,1
14,Deadline,182,0.418555442,1,1
14,Deadline,183,0.168506919,1,1
14,Deadline,184,0.285136925,1,1
14,Deadline,185,0.185173178,1,1
14,Deadline,186,0.985076343,1,1
14,Deadline,187,0.134973064,0,1
14,Deadline,188,0.185141785,1,1
14,Deadline,189,0.401741878,1,1
14,Deadline,190,0.651841113,1,1
14,Deadline,191,0.268486966,1,1
14,Deadline,192,0.635079166,1,1
14,Deadline,193,0.435141106,1,1
14,Deadline,194,0.501650688,1,1
14,Deadline,195,0.551794959,1,1
14,Deadline,196,0.368500821,1,1
14,Deadline,197,0.318321535,0,1
14,Deadline,198,0.568535776,0,1
14,Deadline,199,0.168500278,1,1
14,No Deadline,0,0.518566882,0,1
14,No Deadline,1,0.218417857,1,1
14,No Deadline,2,0.401855677,1,1
14,No Deadline,3,0.335162266,0,1
14,No Deadline,4,0.335125742,0,1
14,No Deadline,5,0.368607376,1,1
14,No Deadline,6,0.318400017,0,1
14,No Deadline,7,0.335095858,1,1
14,No Deadline,8,0.335158342,1,1
14,No Deadline,9,0.251697853,0,1
14,No Deadline,10,0.585189357,1,1
14,No Deadline,11,0.58501398,1,1
14,No Deadline,12,0.368519235,1,1
14,No Deadline,13,0.31843624,1,1
14,No Deadline,14,0.318215585,1,1
14,No Deadline,15,0.268505681,1,1
14,No Deadline,16,0.318408167,0,1
14,No Deadline,17,0.285086214,1,1
14,No Deadline,18,0.26840939,0,1
14,No Deadline,19,0.135110106,1,1
14,No Deadline,20,0.468440119,1,1
14,No Deadline,21,0.385135084,0,1
14,No Deadline,22,0.435253396,0,1
14,No Deadline,23,0.535183637,0,1
14,No Deadline,24,0.485353596,0,1
14,No Deadline,25,0.318574791,1,1
14,No Deadline,26,0.351762419,0,1
14,No Deadline,27,0.301842727,0,1
14,No Deadline,28,1.401592159,1,1
14,No Deadline,29,0.30181224,1,1
14,No Deadline,30,0.318477896,0,1
14,No Deadline,31,0.368358045,1,1
14,No Deadline,32,0.468444043,1,1
14,No Deadline,33,0.418540349,1,1
14,No Deadline,34,0.335210865,1,1
14,No Deadline,35,0.401774176,1,1
14,No Deadline,36,0.501803728,1,1
14,No Deadline,37,1.235091662,0,1
14,No Deadline,38,0.435131749,0,1
14,No Deadline,39,1.251873834,1,1
14,No Deadline,40,0.468461852,0,1
14,No Deadline,41,0.768491947,1,1
14,No Deadline,42,1.968418234,1,1
14,No Deadline,43,0.701629498,1,1
14,No Deadline,44,0.651807003,1,1
14,No Deadline,45,0.518550884,0,1
14,No Deadline,46,0.435203288,0,1
14,No Deadline,47,0.418540953,0,1
14,No Deadline,48,0.501784409,1,1
14,No Deadline,49,0.301887402,1,1
14,No Deadline,50,0.435213551,1,1
14,No Deadline,51,0.301816164,1,1
14,No Deadline,52,0.35174461,1,1
14,No Deadline,53,0.31843624,1,1
14,No Deadline,54,0.301781149,0,1
14,No Deadline,55,0.335168001,1,1
14,No Deadline,56,0.268499041,1,1
14,No Deadline,57,0.268449537,1,1
14,No Deadline,58,0.101897122,0,1
14,No Deadline,59,0.201868717,0,1
14,No Deadline,60,0.318570867,1,1
14,No Deadline,61,0.268504474,1,1
14,No Deadline,62,0.251646538,1,1
14,No Deadline,63,0.268440783,1,1
14,No Deadline,64,0.085126119,0,1
14,No Deadline,65,0.185196723,0,1
14,No Deadline,66,0.551765679,1,1
14,No Deadline,67,0.768501606,1,1
14,No Deadline,68,0.468350468,1,1
14,No Deadline,69,0.251634162,0,1
14,No Deadline,70,0.335153814,0,1
14,No Deadline,71,0.251824329,0,1
14,No Deadline,72,0.185165934,0,1
14,No Deadline,73,0.318529513,1,1
14,No Deadline,74,0.385030945,1,1
14,No Deadline,75,0.268465535,1,1
14,No Deadline,76,0.285164696,1,1
14,No Deadline,77,0.151808965,1,1
14,No Deadline,78,0.418469112,1,1
14,No Deadline,79,0.135159006,0,1
14,No Deadline,80,0.401812512,0,1
14,No Deadline,81,0.368308842,0,1
14,No Deadline,82,0.068401904,0,1
14,No Deadline,83,0.468438006,1,1
14,No Deadline,84,0.26843052,0,1
14,No Deadline,85,0.368475768,1,1
14,No Deadline,86,0.33518732,1,1
14,No Deadline,87,0.135069355,0,1
14,No Deadline,88,0.301865668,0,1
14,No Deadline,89,0.168498769,1,1
14,No Deadline,90,0.28517677,0,1
14,No Deadline,91,0.385123312,1,1
14,No Deadline,92,0.168477337,0,1
14,No Deadline,93,0.301808014,0,1
14,No Deadline,94,0.518493834,1,1
14,No Deadline,95,0.351828223,0,1
14,No Deadline,96,0.685108129,1,1
14,No Deadline,97,0.401778402,1,1
14,No Deadline,98,0.58513925,0,1
14,No Deadline,99,0.435160123,0,1
14,No Deadline,100,0.051828012,0,1
14,No Deadline,101,0.401685733,0,1
14,No Deadline,102,0.368414189,1,1
14,No Deadline,103,0.351720462,0,1
14,No Deadline,104,0.335136609,1,1
14,No Deadline,105,0.251820405,1,1
14,No Deadline,106,0.385144743,0,1
14,No Deadline,107,0.401787458,1,1
14,No Deadline,108,0.335218411,1,1
14,No Deadline,109,0.384988685,1,1
14,No Deadline,110,0.435135673,0,1
14,No Deadline,111,0.368461882,1,1
14,No Deadline,112,0.368447695,1,1
14,No Deadline,113,0.55177715,0,1
14,No Deadline,114,0.518428331,1,1
14,No Deadline,115,0.551782281,1,1
14,No Deadline,116,0.568467859,1,1
14,No Deadline,117,0.485156486,1,1
14,No Deadline,118,0.418523144,1,1
14,No Deadline,119,0.651860431,1,1
14,No Deadline,120,0.685039004,0,1
14,No Deadline,121,0.901796363,0,1
14,No Deadline,122,1.101773361,1,1
14,No Deadline,123,0.885117426,0,1
14,No Deadline,124,1.101796604,0,1
14,No Deadline,125,0.318463709,1,1
14,No Deadline,126,3.218346318,0,1
14,No Deadline,127,0.885141876,1,1
14,No Deadline,128,0.568431938,1,1
14,No Deadline,129,0.518479948,1,1
14,No Deadline,130,0.468394539,0,1
14,No Deadline,131,0.485027594,1,1
14,No Deadline,132,0.351717745,0,1
14,No Deadline,133,0.568539097,1,1
14,No Deadline,134,0.385162251,1,1
14,No Deadline,135,0.385203605,0,1
14,No Deadline,136,0.535244612,1,1
14,No Deadline,137,0.384929823,1,1
14,No Deadline,138,0.485099435,0,1
14,No Deadline,139,0.368459166,1,1
14,No Deadline,140,0.151833717,0,1
14,No Deadline,141,0.335277876,1,1
14,No Deadline,142,0.235030688,1,1
14,No Deadline,143,0.068550114,0,1
14,No Deadline,144,0.035189825,1,1
14,No Deadline,145,0.451833928,0,1
14,No Deadline,146,0.335183396,0,1
14,No Deadline,147,0.318376473,0,1
14,No Deadline,148,0.301868989,1,1
14,No Deadline,149,0.018411578,0,1
14,No Deadline,150,0.351787171,0,1
14,No Deadline,151,0.285111268,0,1
14,No Deadline,152,0.385151082,1,1
14,No Deadline,153,0.35186354,0,1
14,No Deadline,154,0.268456177,1,1
14,No Deadline,155,0.268509002,0,1
14,No Deadline,156,0.468455513,1,1
14,No Deadline,157,0.218486378,0,1
14,No Deadline,158,0.035175035,0,1
14,No Deadline,159,0.401413763,1,1
14,No Deadline,160,0.551815183,0,1
14,No Deadline,161,0.368313068,1,1
14,No Deadline,162,0.151696977,1,1
14,No Deadline,163,0.301850576,0,1
14,No Deadline,164,0.318507477,1,1
14,No Deadline,165,0.351622963,1,1
14,No Deadline,166,0.5184558,1,1
14,No Deadline,167,0.251737999,0,1
14,No Deadline,168,0.318509892,1,1
14,No Deadline,169,0.285118814,1,1
14,No Deadline,170,0.168493637,0,1
14,No Deadline,171,0.318461596,1,1
14,No Deadline,172,0.118476749,0,1
14,No Deadline,173,0.26842237,0,1
14,No Deadline,174,0.035156923,0,1
14,No Deadline,175,0.1684713,0,1
14,No Deadline,176,0.068482499,0,1
14,No Deadline,177,0.201857549,0,1
14,No Deadline,178,0.18505304,1,1
14,No Deadline,179,0.16851205,0,1
14,No Deadline,180,0.451885244,1,1
14,No Deadline,181,0.618501953,0,1
14,No Deadline,182,0.235174672,1,1
14,No Deadline,183,0.335041826,0,1
14,No Deadline,184,0.368389136,0,1
14,No Deadline,185,0.051814429,1,1
14,No Deadline,186,0.085187094,0,1
14,No Deadline,187,0.701721865,1,1
14,No Deadline,188,0.101856975,1,1
14,No Deadline,189,0.118492445,0,1
14,No Deadline,190,0.401805267,0,1
14,No Deadline,191,0.535218049,1,1
14,No Deadline,192,0.151773346,1,1
14,No Deadline,193,0.068532305,0,1
14,No Deadline,194,1.068531399,0,1
14,No Deadline,195,0.351959228,0,1
14,No Deadline,196,0.051847633,0,1
14,No Deadline,197,0.551823333,1,1
14,No Deadline,198,0.06850544,1,1
14,No Deadline,199,0.384992911,0,1
15,Deadline,0,0.218463582,0,1
15,Deadline,1,0.018439132,1,1
15,Deadline,2,0.101802348,1,1
15,Deadline,3,0.035020677,0,1
15,Deadline,4,0.38518428,0,1
15,Deadline,5,0.268475052,1,1
15,Deadline,6,0.134925896,0,1
15,Deadline,7,0.268429171,1,1
15,Deadline,8,0.435161339,0,1
15,Deadline,9,0.051590148,1,1
15,Deadline,10,0.018433699,0,1
15,Deadline,11,0.051822572,0,1
15,Deadline,12,0.418210933,1,1
15,Deadline,13,0.251508346,0,1
15,Deadline,14,0.218488333,1,1
15,Deadline,15,0.235104289,0,1
15,Deadline,16,0.318166561,0,1
15,Deadline,17,0.018504332,1,1
15,Deadline,18,0.201764013,1,1
15,Deadline,19,0.468412569,1,1
15,Deadline,20,0.085159226,0,1
15,Deadline,21,0.235119382,1,1
15,Deadline,22,0.23511425,0,1
15,Deadline,23,0.534897824,1,1
15,Deadline,24,0.301815932,1,1
15,Deadline,25,0.068486221,1,1
15,Deadline,26,0.234974192,1,1
15,Deadline,27,0.235025205,1,1
15,Deadline,28,0.135148359,0,1
15,Deadline,29,0.118492861,1,1
15,Deadline,30,0.351850343,0,1
15,Deadline,31,0.318237496,0,1
15,Deadline,32,0.435077123,1,1
15,Deadline,33,0.068497389,1,1
15,Deadline,34,0.2684666,0,1
15,Deadline,35,0.285106704,1,1
15,Deadline,36,0.251580187,1,1
15,Deadline,37,0.234898729,1,1
15,Deadline,38,0.201828911,0,1
15,Deadline,39,0.268409551,1,1
15,Deadline,40,0.184888466,0,1
15,Deadline,41,0.118403815,1,1
15,Deadline,42,0.01845845,1,1
15,Deadline,43,0.601578074,1,1
15,Deadline,44,0.068303903,1,1
15,Deadline,45,0.285089499,0,1
15,Deadline,46,0.351738658,0,1
15,Deadline,47,0.051748921,1,1
15,Deadline,48,0.268207009,0,1
15,Deadline,49,0.151618823,0,1
15,Deadline,50,0.15162486,1,1
15,Deadline,51,0.035117571,1,1
15,Deadline,52,0.251775484,0,1
15,Deadline,53,0.235107006,0,1
15,Deadline,54,0.068496785,0,1
15,Deadline,55,0.451713906,0,1
15,Deadline,56,0.085202089,1,1
15,Deadline,57,0.01835069,0,1
15,Deadline,58,0.235048749,0,1
15,Deadline,59,0.018299375,1,1
15,Deadline,60,0.168422832,1,1
15,Deadline,61,0.185078028,1,1
15,Deadline,62,0.118340729,0,1
15,Deadline,63,0.034912614,0,1
15,Deadline,64,0.068370612,0,1
15,Deadline,65,0.118456639,0,1
15,Deadline,66,0.084931027,0,1
15,Deadline,67,0.035125721,0,1
15,Deadline,68,0.085117571,1,1
15,Deadline,69,0.2184666,1,1
15,Deadline,70,0.051808084,1,1
15,Deadline,71,0.235041504,1,1
15,Deadline,72,0.335177941,1,1
15,Deadline,73,0.251796915,0,1
15,Deadline,74,0.435158622,1,1
15,Deadline,75,0.085191222,0,1
15,Deadline,76,0.28492982,1,1
15,Deadline,77,0.051713303,1,1
15,Deadline,78,0.068522141,1,1
15,Deadline,79,0.268425549,0,1
15,Deadline,80,0.118437623,1,1
15,Deadline,81,0.018474448,0,1
15,Deadline,82,0.03516647,1,1
15,Deadline,83,0.11837514,1,1
15,Deadline,84,0.15173081,0,1
15,Deadline,85,0.101822572,1,1
15,Deadline,86,0.085011621,0,1
15,Deadline,87,0.118245344,1,1
15,Deadline,88,0.08519907,0,1
15,Deadline,89,0.085175224,1,1
15,Deadline,90,0.11844698,1,1
15,Deadline,91,0.068426454,0,1
15,Deadline,92,0.101609164,1,1
15,Deadline,93,0.051865133,0,1
15,Deadline,94,0.085176432,1,1
15,Deadline,95,0.035165867,1,1
15,Deadline,96,0.201873585,1,1
15,Deadline,97,0.068313562,0,1
15,Deadline,98,0.085058408,1,1
15,Deadline,99,0.101748921,0,1
15,Deadline,100,0.118364575,1,1
15,Deadline,101,0.251829515,1,1
15,Deadline,102,0.101676779,1,1
15,Deadline,103,0.068302997,0,1
15,Deadline,104,0.035167678,0,1
15,Deadline,105,0.018482296,1,1
15,Deadline,106,0.018263153,1,1
15,Deadline,107,0.168438528,0,1
15,Deadline,108,0.134729995,0,1
15,Deadline,109,0.085009206,0,1
15,Deadline,110,0.251733527,0,1
15,Deadline,111,0.151775484,1,1
15,Deadline,112,0.101730508,0,1
15,Deadline,113,0.135000755,1,1
15,Deadline,114,0.268380875,0,1
15,Deadline,115,0.01830994,0,1
15,Deadline,116,0.085134474,1,1
15,Deadline,117,0.135090706,0,1
15,Deadline,118,0.118471732,0,1
15,Deadline,119,0.385150774,1,1
15,Deadline,120,0.051801745,1,1
15,Deadline,121,0.018505237,0,1
15,Deadline,122,0.201640255,0,1
15,Deadline,123,0.018522744,1,1
15,Deadline,124,0.118453017,0,1
15,Deadline,125,0.301844004,0,1
15,Deadline,126,0.118476561,1,1
15,Deadline,127,0.18510761,1,1
15,Deadline,128,0.135060521,0,1
15,Deadline,129,0.035050258,0,1
15,Deadline,130,0.051818346,0,1
15,Deadline,131,0.085152585,1,1
15,Deadline,132,0.03516798,1,1
15,Deadline,133,0.118206707,0,1
15,Deadline,134,0.13511425,0,1
15,Deadline,135,0.035109723,0,1
15,Deadline,136,0.184923481,0,1
15,Deadline,137,0.034894201,0,1
15,Deadline,138,0.218416795,1,1
15,Deadline,139,0.301822271,0,1
15,Deadline,140,0.06846811,0,1
15,Deadline,141,0.218390232,1,1
15,Deadline,142,0.01829032,1,1
15,Deadline,143,0.151776389,0,1
15,Deadline,144,0.251279845,0,1
15,Deadline,145,0.218462676,1,1
15,Deadline,146,0.368485315,1,1
15,Deadline,147,0.101877811,0,1
15,Deadline,148,0.151857889,0,1
15,Deadline,149,0.18507501,0,1
15,Deadline,150,0.035098856,0,1
15,Deadline,151,0.218427662,0,1
15,Deadline,152,0.118470826,1,1
15,Deadline,153,0.08519243,1,1
15,Deadline,154,0.068477467,1,1
15,Deadline,155,0.01845513,1,1
15,Deadline,156,0.034944007,1,1
15,Deadline,157,0.118530291,1,1
15,Deadline,158,0.135111534,1,1
15,Deadline,159,0.068286396,0,1
15,Deadline,160,0.084918349,1,1
15,Deadline,161,0.018146941,0,1
15,Deadline,162,0.084734221,1,1
15,Deadline,163,0.051556642,1,1
15,Deadline,164,0.018478976,1,1
15,Deadline,165,0.084941894,0,1
15,Deadline,166,0.051678288,1,1
15,Deadline,167,0.134775574,1,1
15,Deadline,168,0.218160826,0,1
15,Deadline,169,0.118296357,0,1
15,Deadline,170,0.11847958,1,1
15,Deadline,171,0.184892994,1,1
15,Deadline,172,0.18515168,1,1
15,Deadline,173,0.168244137,1,1
15,Deadline,174,0.18519092,0,1
15,Deadline,175,0.151700323,1,1
15,Deadline,176,0.184915331,0,1
15,Deadline,177,0.151757675,1,1
15,Deadline,178,0.218510972,0,1
15,Deadline,179,0.01834254,0,1
15,Deadline,180,0.218472939,0,1
15,Deadline,181,0.06851067,1,1
15,Deadline,182,0.068159618,0,1
15,Deadline,183,0.084894201,1,1
15,Deadline,184,0.08485647,0,1
15,Deadline,185,0.051521628,0,1
15,Deadline,186,0.018315675,0,1
15,Deadline,187,0.068018353,0,1
15,Deadline,188,0.134933744,0,1
15,Deadline,189,0.218398986,0,1
15,Deadline,190,0.185062332,0,1
15,Deadline,191,0.218505237,1,1
15,Deadline,192,0.101885961,1,1
15,Deadline,193,0.085104289,1,1
15,Deadline,194,0.351795104,1,1
15,Deadline,195,0.235127834,0,1
15,Deadline,196,0.085180959,0,1
15,Deadline,197,0.051667421,0,1
15,Deadline,198,0.118552024,1,1
15,Deadline,199,0.085137191,0,1
15,No Deadline,0,0.468335899,1,1
15,No Deadline,1,0.05183042,1,1
15,No Deadline,2,0.118281566,0,1
15,No Deadline,3,0.051635123,1,1
15,No Deadline,4,0.318253192,1,1
15,No Deadline,5,0.068267379,0,1
15,No Deadline,6,0.035123608,0,1
15,No Deadline,7,0.168448489,1,1
15,No Deadline,8,0.118245042,0,1
15,No Deadline,9,0.118482598,0,1
15,No Deadline,10,0.185065652,1,1
15,No Deadline,11,0.218462374,1,1
15,No Deadline,12,0.168355217,1,1
15,No Deadline,13,0.334899937,1,1
15,No Deadline,14,0.335156509,1,1
15,No Deadline,15,0.101757373,0,1
15,No Deadline,16,0.134931933,1,1
15,No Deadline,17,0.085147756,1,1
15,No Deadline,18,0.184771348,1,1
15,No Deadline,19,0.251748619,0,1
15,No Deadline,20,0.251716019,1,1
15,No Deadline,21,0.168389327,1,1
15,No Deadline,22,0.101785747,0,1
15,No Deadline,23,0.018473543,0,1
15,No Deadline,24,0.101753449,1,1
15,No Deadline,25,0.251721151,0,1
15,No Deadline,26,0.035072293,0,1
15,No Deadline,27,0.235125419,0,1
15,No Deadline,28,0.168111624,0,1
15,No Deadline,29,0.201813517,0,1
15,No Deadline,30,0.11851882,0,1
15,No Deadline,31,0.151760995,1,1
15,No Deadline,32,0.285019167,0,1
15,No Deadline,33,0.051579885,0,1
15,No Deadline,34,0.235001358,0,1
15,No Deadline,35,0.018293338,1,1
15,No Deadline,36,0.151773371,1,1
15,No Deadline,37,0.118425549,1,1
15,No Deadline,38,0.101748619,1,1
15,No Deadline,39,0.301788765,0,1
15,No Deadline,40,0.151792991,0,1
15,No Deadline,41,0.251635123,1,1
15,No Deadline,42,0.068492559,1,1
15,No Deadline,43,0.251806272,1,1
15,No Deadline,44,0.018477467,0,1
15,No Deadline,45,0.118512482,1,1
15,No Deadline,46,0.351592261,1,1
15,No Deadline,47,0.234746898,1,1
15,No Deadline,48,0.084979323,0,1
15,No Deadline,49,0.168448791,1,1
15,No Deadline,50,0.118124604,0,1
15,No Deadline,51,0.068352803,1,1
15,No Deadline,52,0.135024903,1,1
15,No Deadline,53,0.035141417,1,1
15,No Deadline,54,0.068317184,0,1
15,No Deadline,55,0.085158019,1,1
15,No Deadline,56,0.05157747,1,1
15,No Deadline,57,0.201834948,1,1
15,No Deadline,58,0.368382384,1,1
15,No Deadline,59,0.101869661,0,1
15,No Deadline,60,0.284917444,1,1
15,No Deadline,61,0.018494974,0,1
15,No Deadline,62,0.301816535,0,1
15,No Deadline,63,0.051827402,0,1
15,No Deadline,64,0.135128135,1,1
15,No Deadline,65,0.101853965,1,1
15,No Deadline,66,0.085205409,1,1
15,No Deadline,67,0.135139908,0,1
15,No Deadline,68,0.51842253,1,1
15,No Deadline,69,0.101740771,0,1
15,No Deadline,70,0.101780313,1,1
15,No Deadline,71,0.085186996,0,1
15,No Deadline,72,0.10185155,1,1
15,No Deadline,73,0.035133569,0,1
15,No Deadline,74,0.018487126,0,1
15,No Deadline,75,0.168167165,0,1
15,No Deadline,76,0.635103384,0,1
15,No Deadline,77,0.068419813,0,1
15,No Deadline,78,0.051619729,0,1
15,No Deadline,79,0.01851218,1,1
15,No Deadline,80,0.034964231,1,1
15,No Deadline,81,0.03503758,0,1
15,No Deadline,82,0.018034351,1,1
15,No Deadline,83,0.018337106,0,1
15,No Deadline,84,0.051581696,0,1
15,No Deadline,85,0.018189502,1,1
15,No Deadline,86,0.685126324,1,1
15,No Deadline,87,0.118475958,1,1
15,No Deadline,88,0.15183525,0,1
15,No Deadline,89,0.018506445,0,1
15,No Deadline,90,0.035077425,0,1
15,No Deadline,91,0.051805367,1,1
15,No Deadline,92,0.085183978,1,1
15,No Deadline,93,0.484788856,1,1
15,No Deadline,94,0.168299073,1,1
15,No Deadline,95,0.101692475,0,1
15,No Deadline,96,0.034982342,0,1
15,No Deadline,97,0.101551511,1,1
15,No Deadline,98,0.018453319,0,1
15,No Deadline,99,0.035090404,1,1
15,No Deadline,100,0.035144435,1,1
15,No Deadline,101,0.051617918,0,1
15,No Deadline,102,0.085145945,0,1
15,No Deadline,103,0.068477769,1,1
15,No Deadline,104,0.118166259,1,1
15,No Deadline,105,0.335165867,0,1
15,No Deadline,106,0.201834948,0,1
15,No Deadline,107,0.11833771,0,1
15,No Deadline,108,0.08519092,1,1
15,No Deadline,109,0.051840683,1,1
15,No Deadline,110,0.068497993,1,1
15,No Deadline,111,0.018447282,0,1
15,No Deadline,112,0.018452111,1,1
15,No Deadline,113,0.151530985,1,1
15,No Deadline,114,0.018518519,1,1
15,No Deadline,115,0.085195146,1,1
15,No Deadline,116,0.251762202,1,1
15,No Deadline,117,0.068304205,1,1
15,No Deadline,118,0.135103686,0,1
15,No Deadline,119,0.018367291,0,1
15,No Deadline,120,0.05183042,1,1
15,No Deadline,121,0.018513387,0,1
15,No Deadline,122,0.051788463,1,1
15,No Deadline,123,0.068473845,1,1
15,No Deadline,124,0.035136285,1,1
15,No Deadline,125,0.484999245,0,1
15,No Deadline,126,0.151788463,1,1
15,No Deadline,127,0.085143228,0,1
15,No Deadline,128,0.135124211,1,1
15,No Deadline,129,0.501739564,0,1
15,No Deadline,130,0.201671043,1,1
15,No Deadline,131,0.101849135,0,1
15,No Deadline,132,0.434850433,0,1
15,No Deadline,133,0.05182378,1,1
15,No Deadline,134,0.085180959,1,1
15,No Deadline,135,0.051849437,0,1
15,No Deadline,136,0.068700534,1,1
15,No Deadline,137,0.034896314,1,1
15,No Deadline,138,0.135145643,1,1
15,No Deadline,139,0.051824987,1,1
15,No Deadline,140,0.035225633,1,1
15,No Deadline,141,0.268167467,1,1
15,No Deadline,142,0.018228742,0,1
15,No Deadline,143,0.085168885,0,1
15,No Deadline,144,0.201760391,1,1
15,No Deadline,145,0.201748317,1,1
15,No Deadline,146,0.101793595,1,1
15,No Deadline,147,0.085155604,0,1
15,No Deadline,148,0.085077726,1,1
15,No Deadline,149,0.151782124,0,1
15,No Deadline,150,0.13513538,0,1
15,No Deadline,151,0.101668327,0,1
15,No Deadline,152,0.018495276,1,1
15,No Deadline,153,0.068442452,0,1
15,No Deadline,154,0.135092215,0,1
15,No Deadline,155,0.068319297,0,1
15,No Deadline,156,0.018501917,1,1
15,No Deadline,157,0.051500196,1,1
15,No Deadline,158,0.068525461,0,1
15,No Deadline,159,0.135063841,0,1
15,No Deadline,160,0.085141719,0,1
15,No Deadline,161,0.135164358,0,1
15,No Deadline,162,0.168426454,0,1
15,No Deadline,163,0.135133267,0,1
15,No Deadline,164,0.051752241,0,1
15,No Deadline,165,0.251771258,1,1
15,No Deadline,166,0.201584111,0,1
15,No Deadline,167,0.018312053,1,1
15,No Deadline,168,0.201871774,0,1
15,No Deadline,169,0.068474147,0,1
15,No Deadline,170,0.218397778,1,1
15,No Deadline,171,0.184655136,1,1
15,No Deadline,172,0.135098554,1,1
15,No Deadline,173,0.185009206,1,1
15,No Deadline,174,0.10180265,0,1
15,No Deadline,175,0.101805669,0,1
15,No Deadline,176,0.168179541,0,1
15,No Deadline,177,0.151588337,0,1
15,No Deadline,178,0.101799934,1,1
15,No Deadline,179,0.051828308,0,1
15,No Deadline,180,0.068145431,1,1
15,No Deadline,181,0.117943192,1,1
15,No Deadline,182,0.018516104,1,1
15,No Deadline,183,0.051798726,1,1
15,No Deadline,184,0.018517613,0,1
15,No Deadline,185,0.018309336,1,1
15,No Deadline,186,0.135210541,0,1
15,No Deadline,187,0.018519424,1,1
15,No Deadline,188,0.185092819,1,1
15,No Deadline,189,0.135145341,1,1
15,No Deadline,190,0.084958496,1,1
15,No Deadline,191,0.018462374,0,1
15,No Deadline,192,0.068456035,0,1
15,No Deadline,193,0.018473543,0,1
15,No Deadline,194,0.201908298,0,1
15,No Deadline,195,0.018553533,1,1
15,No Deadline,196,0.017963718,0,1
15,No Deadline,197,0.018443056,0,1
15,No Deadline,198,0.085073501,1,1
15,No Deadline,199,0.051820158,1,1
16,No Deadline,0,0.601447071,1,1
16,No Deadline,1,0.251573848,0,1
16,No Deadline,2,0.368463884,0,1
16,No Deadline,3,0.201523137,0,1
16,No Deadline,4,0.101853663,1,1
16,No Deadline,5,0.18524465,0,1
16,No Deadline,6,0.501825893,1,1
16,No Deadline,7,0.401687947,0,1
16,No Deadline,8,0.335151378,0,1
16,No Deadline,9,0.318533007,0,1
16,No Deadline,10,0.135149265,0,1
16,No Deadline,11,0.401815932,0,1
16,No Deadline,12,0.45186302,1,1
16,No Deadline,13,0.401603127,0,1
16,No Deadline,14,0.76839476,1,1
16,No Deadline,15,1.035119684,1,1
16,No Deadline,16,0.635134776,1,1
16,No Deadline,17,0.518500407,0,1
16,No Deadline,18,0.534988379,0,1
16,No Deadline,19,1.051765523,1,1
16,No Deadline,20,1.268479278,1,1
16,No Deadline,21,0.518461469,0,1
16,No Deadline,22,1.918367593,0,1
16,No Deadline,23,0.034945516,1,1
16,No Deadline,24,0.701791482,1,1
16,No Deadline,25,1.534907181,1,1
16,No Deadline,26,0.585082858,1,1
16,No Deadline,27,0.885110326,0,1
16,No Deadline,28,0.518449697,0,1
16,No Deadline,29,0.60177005,0,1
16,No Deadline,30,0.668327145,1,1
16,No Deadline,31,0.884899635,1,1
16,No Deadline,32,0.418480184,1,1
16,No Deadline,33,0.368451206,0,1
16,No Deadline,34,0.234945818,0,1
16,No Deadline,35,0.251757373,0,1
16,No Deadline,36,0.251806574,1,1
16,No Deadline,37,0.251782728,0,1
16,No Deadline,38,0.251805669,0,1
16,No Deadline,39,0.785152887,1,1
16,No Deadline,40,0.33515983,1,1
16,No Deadline,41,0.235124815,1,1
16,No Deadline,42,0.518481089,1,1
16,No Deadline,43,0.501808084,1,1
16,No Deadline,44,0.285114552,0,1
16,No Deadline,45,0.60168523,0,1
16,No Deadline,46,0.535046334,1,1
16,No Deadline,47,0.38494612,1,1
16,No Deadline,48,0.601674062,0,1
16,No Deadline,49,0.351682816,1,1
16,No Deadline,50,0.301868755,1,1
16,No Deadline,51,0.334378641,1,1
16,No Deadline,52,0.385214767,1,1
16,No Deadline,53,0.418533913,0,1
16,No Deadline,54,0.38493797,0,1
16,No Deadline,55,0.468478372,0,1
16,No Deadline,56,0.535207522,0,1
16,No Deadline,57,0.351775182,1,1
16,No Deadline,58,0.518283075,0,1
16,No Deadline,59,0.768288509,1,1
16,No Deadline,60,0.251614899,1,1
16,No Deadline,61,0.285142322,0,1
16,No Deadline,62,0.26844698,0,1
16,No Deadline,63,0.335137493,1,1
16,No Deadline,64,0.368532705,0,1
16,No Deadline,65,0.718056989,1,1
16,No Deadline,66,0.351805367,0,1
16,No Deadline,67,0.301885055,1,1
16,No Deadline,68,0.335151982,1,1
16,No Deadline,69,0.31827402,0,1
16,No Deadline,70,0.301989797,0,1
16,No Deadline,71,0.718170485,0,1
16,No Deadline,72,0.335224728,1,1
16,No Deadline,73,0.535093423,1,1
16,No Deadline,74,0.10184008,0,1
16,No Deadline,75,0.235125117,0,1
16,No Deadline,76,0.33492982,1,1
16,No Deadline,77,0.451856983,0,1
16,No Deadline,78,0.60156449,1,1
16,No Deadline,79,0.368478372,1,1
16,No Deadline,80,0.351821667,1,1
16,No Deadline,81,0.268398986,1,1
16,No Deadline,82,0.351799632,1,1
16,No Deadline,83,0.585126324,1,1
16,No Deadline,84,0.401803254,1,1
16,No Deadline,85,0.368456337,1,1
16,No Deadline,86,0.318510369,1,1
16,No Deadline,87,0.285150171,1,1
16,No Deadline,88,0.23505539,1,1
16,No Deadline,89,0.568245344,0,1
16,No Deadline,90,0.301886565,0,1
16,No Deadline,91,0.501597694,1,1
16,No Deadline,92,0.318503426,1,1
16,No Deadline,93,0.418270096,1,1
16,No Deadline,94,0.301889885,0,1
16,No Deadline,95,0.468325636,1,1
16,No Deadline,96,0.6184666,0,1
16,No Deadline,97,0.268206103,1,1
16,No Deadline,98,0.368224818,1,1
16,No Deadline,99,0.235132663,1,1
16,No Deadline,100,0.218271605,1,1
16,No Deadline,101,0.218510972,1,1
16,No Deadline,102,0.285153189,1,1
16,No Deadline,103,0.651837061,1,1
16,No Deadline,104,0.335132965,1,1
16,No Deadline,105,0.434919557,1,1
16,No Deadline,106,0.38504241,1,1
16,No Deadline,107,0.38496242,0,1
16,No Deadline,108,0.318505539,1,1
16,No Deadline,109,0.218471128,1,1
16,No Deadline,110,0.185174319,0,1
16,No Deadline,111,0.651868454,1,1
16,No Deadline,112,0.401769749,0,1
16,No Deadline,113,0.401545474,1,1
16,No Deadline,114,0.568486522,0,1
16,No Deadline,115,0.568464789,1,1
16,No Deadline,116,0.301798726,0,1
16,No Deadline,117,0.401826798,0,1
16,No Deadline,118,0.251740469,1,1
16,No Deadline,119,0.301622747,1,1
16,No Deadline,120,0.251781219,0,1
16,No Deadline,121,0.418444565,0,1
16,No Deadline,122,0.485129645,1,1
16,No Deadline,123,0.301826496,1,1
16,No Deadline,124,0.318516104,1,1
16,No Deadline,125,0.301871774,1,1
16,No Deadline,126,0.318513991,0,1
16,No Deadline,127,0.401607051,0,1
16,No Deadline,128,0.318496785,0,1
16,No Deadline,129,0.318428869,1,1
16,No Deadline,130,0.535149265,1,1
16,No Deadline,131,0.335190618,1,1
16,No Deadline,132,0.368495276,0,1
16,No Deadline,133,0.385103686,1,1
16,No Deadline,134,0.48488907,1,1
16,No Deadline,135,0.46843068,1,1
16,No Deadline,136,0.31851882,1,1
16,No Deadline,137,0.335182469,0,1
16,No Deadline,138,0.584902351,1,1
16,No Deadline,139,0.418619035,0,1
16,No Deadline,140,0.585089197,1,1
16,No Deadline,141,0.535024903,1,1
16,No Deadline,142,0.368464185,1,1
16,No Deadline,143,0.385118476,1,1
16,No Deadline,144,0.351517704,0,1
16,No Deadline,145,0.385113647,1,1
16,No Deadline,146,0.451727791,1,1
16,No Deadline,147,0.268219385,0,1
16,No Deadline,148,0.434896013,0,1
16,No Deadline,149,0.368453621,0,1
16,No Deadline,150,0.834772254,0,1
16,No Deadline,151,0.785091612,1,1
16,No Deadline,152,0.23513055,0,1
16,No Deadline,153,0.151517402,1,1
16,No Deadline,154,0.301684023,1,1
16,No Deadline,155,0.435044523,1,1
16,No Deadline,156,0.25164267,1,1
16,No Deadline,157,0.368252588,1,1
16,No Deadline,158,0.251726282,0,1
16,No Deadline,159,0.268441547,1,1
16,No Deadline,160,0.468315977,1,1
16,No Deadline,161,0.318316279,1,1
16,No Deadline,162,0.385153491,0,1
16,No Deadline,163,0.451612786,0,1
16,No Deadline,164,0.318536328,0,1
16,No Deadline,165,0.451824383,1,1
16,No Deadline,166,0.251600712,0,1
16,No Deadline,167,0.335082556,0,1
16,No Deadline,168,0.285157415,0,1
16,No Deadline,169,0.235126626,0,1
